"basic_std","table","column","label","order","type","length","displayformat","xmldatatype","xmlcodelist","xmlcodelist_multi","core","origin","role","term","algorithm","qualifiers","comment","IGcomment","class_table","class_column","map_var_flag","fixed_mapping","include_in_raw","nn_internal","value_lvl_where_cols","value_lvl_label_col","value_lvl_collect_ct_val","value_lvl_ct_cdlist_id_col","enrich_build_order","enrich_rule","xmlcodelistvalues"
"Y","AE","STUDYID","Study Identifier",10,"C",40,,"text",,,"Req","Protocol","Identifier",,,"UPPERCASE",,"Unique identifier for a study.",,"STUDYID","*",,"Y",,,,,,,,
"Y","AE","DOMAIN","Domain Abbreviation",20,"C",8,,"text",,,"Req","Assigned","Identifier","AE",,"UPPERCASE",,"Two-character abbreviation for the domain.",,"DOMAIN","*",,"Y",,,,,,"60 70","sdtme_ae_teae_v$$ sdtme_std_qnam_v$$",
"Y","AE","USUBJID","Unique Subject Identifier",30,"C",60,,"text",,,"Req","Assigned","Identifier",,,"UPPERCASE","Concatenation of STUDYID and DM.SUBJID","Identifier used to uniquely identify a subject across all studies for all applications or submissions involving the product.",,"USUBJID","*",,"Y",,,,,,,,
,"AE","SPDEVID","Sponsor Device Identifier",40,"C",40,,"text",,,"Perm","Assigned","Identifier",,,"UPPERCASE",,"Sponsor-defined identifier for a device","IDENTIFIERS","SPDEVID","Y",,"Y",,,,,,,,
"Y","AE","AESEQ","Sequence Number",50,"N",8,,"integer",,,"Req","Derived","Identifier",,"Sequential number identifying records within each USUBJID",,,"Sequence Number given to ensure uniqueness of subject records within a domain. May be any valid number.",,"__SEQ","*",,"Y",,,,,,,,
"Y","AE","AEGRPID","Group ID",60,"C",60,,"text",,,"Perm",,"Identifier",,,"UPPERCASE",,"Used to tie together a block of related records in a single domain for a subject.",,"__GRPID","Y",,"Y",,,,,,,,
"Y","AE","AEREFID","Reference ID",70,"C",40,,"text",,,"Perm",,"Identifier",,,"UPPERCASE",,"Internal or external identifier such as a serial number on an SAE reporting form.",,"__REFID","Y",,"Y",,,,,,,,
"Y","AE","AESPID","Sponsor-Defined Identifier",80,"C",40,,"text",,,"Perm","Assigned","Identifier",,,"UPPERCASE",,"Sponsor-defined identifier. It may be pre-printed on the CRF as an explicit line identifier or defined in the sponsor's operational database. Example: Line number on an Adverse Events page.",,"__SPID","*",,"Y",,,,,,,,
,"AE","AELNKID","Link ID",90,"C",40,,"text",,,"Perm","Assigned","Identifier",,,"UPPERCASE",,"Identifier used to link related records across domains. This may be a one-to- one or a one-to-many relationship. For Example: A single tumor may have multiple measurements/assessments performed at each study visit.","IDENTIFIERS","__LNKID","Y",,"Y",,,,,,,,
,"AE","AELNKGRP","Link Group ID",100,"C",40,,"text",,,"Perm","Assigned","Identifier",,,"UPPERCASE",,"Identifier used to link related records across domains. This will usually be a many-to-one relationship. For example: Multiple tumor measurements/assessments will contribute to a single response to therapy determination record.","IDENTIFIERS","__LNKGRP","Y",,"Y",,,,,,,,
"Y","AE","AETERM","Reported Term for the Adverse Event",110,"C",200,,"text",,,"Req",,"Topic",,,"UPPERCASE",,"Verbatim name of the event.",,"__TERM","Y",,"Y",,,,,,,,
"Y","AE","AEMODIFY","Modified Reported Term",120,"C",200,,"text",,,"Perm",,"SynonymQualifier",,,"UPPERCASE",,"If AETERM is modified to facilitate coding, then AEMODIFY will contain the modified text.",,"__MODIFY","Y",,"Y",,,,,,,,
"Y","AE","AELLT","Lowest Level Term",130,"C",200,,"text",,,"Exp","Assigned","VariableQualifier","MedDRA",,"MIXEDCASE",,"Dictionary-derived text description of the Lowest Level Term.",,"__LLT",,,,,,,,,30,"sdtme_std_cd_v$$",
"Y","AE","AELLTCD","Lowest Level Term Code",140,"N",8,,"integer",,,"Exp","Assigned","VariableQualifier","MedDRA",,,,"Dictionary-derived code for the Lowest Level Term.",,"__LLTCD","Y",,"Y",,,,,,30,"sdtme_std_cd_v$$",
"Y","AE","AEDECOD","Dictionary-Derived Term",150,"C",200,,"text",,,"Req","Assigned","SynonymQualifier","MedDRA",,"MIXEDCASE",,"Dictionary-derived text description of AETERM or AEMODIFY. Equivalent to the Preferred Term (PT in MedDRA). The sponsor is expected to provide the dictionary name and version used to map the terms utilizing the define.xml external codelist attributes.",,"__DECOD",,,,,,,,,30,"sdtme_std_cd_v$$",
"Y","AE","AEPTCD","Preferred Term Code",160,"N",8,,"integer",,,"Exp","Assigned","VariableQualifier","MedDRA",,,,"Dictionary-derived code for the Preferred Term.",,"__PTCD",,,,,,,,,30,"sdtme_std_cd_v$$",
"Y","AE","AEHLT","High Level Term",170,"C",200,,"text",,,"Exp","Assigned","VariableQualifier","MedDRA",,"MIXEDCASE",,"Dictionary-derived text description of the High Level Term for the primary System Organ Class.",,"__HLT",,,,,,,,,30,"sdtme_std_cd_v$$",
"Y","AE","AEHLTCD","High Level Term Code",180,"N",8,,"integer",,,"Exp","Assigned","VariableQualifier","MedDRA",,,,"Dictionary-derived code for the High Level Term for the primary System Organ Class.",,"__HLTCD",,,,,,,,,30,"sdtme_std_cd_v$$",
"Y","AE","AEHLGT","High Level Group Term",190,"C",200,,"text",,,"Exp","Assigned","VariableQualifier","MedDRA",,"MIXEDCASE",,"Dictionary-derived text description of the High Level Group Term for the primary System Organ Class.",,"__HLGT",,,,,,,,,30,"sdtme_std_cd_v$$",
"Y","AE","AEHLGTCD","High Level Group Term Code",200,"N",8,,"integer",,,"Exp","Assigned","VariableQualifier","MedDRA",,,,"Dictionary-derived code for the High Level Group Term for the primary System Organ Class.",,"__HLGTCD",,,,,,,,,30,"sdtme_std_cd_v$$",
"Y","AE","AECAT","Category for Adverse Event",210,"C",60,,"text",,,"Perm","Assigned","GroupingQualifier","*",,"UPPERCASE",,"Used to define a category of related records. Example: BLEEDING, NEUROPSYCHIATRIC.",,"__CAT","Y",,"Y",,,,,,,,
"Y","AE","AESCAT","Subcategory for Adverse Event",220,"C",60,,"text",,,"Perm","Assigned","GroupingQualifier","*",,"UPPERCASE",,"A further categorization of adverse event. Example: NEUROLOGIC.",,"__SCAT","Y",,"Y",,,,,,,,
"Y","AE","AEPRESP","Pre-Specified Adverse Event",230,"C",2,,"text","NY",,"Perm",,"VariableQualifier","(NY)",,"UPPERCASE",,"A value of ""Y"" indicates that this adverse event was pre-specified on the CRF. Values are null for spontaneously reported events (i.e., those collected as free- text verbatim terms)",,"__PRESP","Y",,"Y",,,,,,,,"Y"
"Y","AE","AEBODSYS","Body System or Organ Class",240,"C",200,,"text",,,"Exp","Assigned","RecordQualifier","MedDRA",,"MIXEDCASE",,"Dictionary derived. Body system or organ class used by the sponsor from the coding dictionary (e.g., MedDRA). When using a multi-axial dictionary such as MedDRA, this should contain the SOC used for the sponsor's analyses and summary tables which may not necessarily be the primary SOC.",,"__BODSYS",,,,,,,,,30,"sdtme_std_cd_v$$",
"Y","AE","AEBDSYCD","Body System or Organ Class Code",250,"N",8,,"integer",,,"Exp","Assigned","VariableQualifier","MedDRA",,,,"Dictionary derived. Code for the body system or organ class used by the sponsor. When using a multi-axial dictionary such as MedDRA, this should contain the SOC used for the sponsor's analyses and summary tables, which may not necessarily be the primary SOC.",,"__BDSYCD",,,,,,,,,30,"sdtme_std_cd_v$$",
"Y","AE","AESOC","Primary System Organ Class",260,"C",200,,"text",,,"Exp","Assigned","VariableQualifier","MedDRA",,"MIXEDCASE",,"Dictionary-derived text description of the primary System Organ Class. Will be the same as AEBODSYS if the primary SOC was used for analysis.",,"__SOC",,,,,,,,,30,"sdtme_std_cd_v$$",
"Y","AE","AESOCCD","Primary System Organ Class Code",270,"N",8,,"integer",,,"Exp","Assigned","VariableQualifier","MedDRA",,,,"Dictionary-derived code for the primary System Organ Class. Will be the same as AEBDSYCD if the primary SOC was used for analysis.",,"__SOCCD",,,,,,,,,30,"sdtme_std_cd_v$$",
"Y","AE","AELOC","Location of Event",280,"C",100,,"text","LOC",,"Perm",,"RecordQualifier","(LOC)",,"UPPERCASE",,"Describes anatomical location relevant for the event (e.g., ARM for skin rash).",,"__LOC","Y",,"Y",,,,,,,,
"Y","AE","AESEV","Severity/Intensity",290,"C",80,,"text","AESEV",,"Perm",,"RecordQualifier","(AESEV)",,"UPPERCASE",,"The severity or intensity of the event. Examples: MILD, MODERATE, SEVERE.",,"__SEV","Y",,"Y",,,,,,,,
"Y","AE","AESER","Serious Event",300,"C",2,,"text","NY",,"Exp",,"RecordQualifier","(NY)",,"UPPERCASE",,"Is this a serious event?",,"__SER","Y",,"Y",,,,,,,,
"Y","AE","AEACN","Action Taken with Study Treatment",310,"C",40,,"text","ACN",,"Exp",,"RecordQualifier","(ACN)",,"UPPERCASE",,"Describes changes to the study treatment as a result of the event. AEACN is specifically for the relationship to study treatment. AEACNOTH is for actions unrelated to dose adjustments of study treatment. Examples of AEACN values include ICH E2B values: DRUG WITHDRAWN, DOSE REDUCED, DOSE INCREASED, DOSE NOT CHANGED, UNKNOWN or NOT APPLICABLE.",,"__ACN",,,,,"AEACN",,,,,,
"Y","AE","AEACNOTH","Other Action Taken",320,"C",200,,"text",,,"Perm",,"RecordQualifier",,,"UPPERCASE",,"Describes other actions taken as a result of the event that are unrelated to dose adjustments of study treatment. Usually reported as free text. Example: ""TREATMENT UNBLINDED. PRIMARY CARE PHYSICIAN NOTIFIED.""",,"__ACNOTH","Y",,"Y",,,,,,,,
,"AE","AEACNDEV","Action Taken with Device",330,"C",80,,"text","AEACNDEV",,"Perm",,"RecordQualifier","*",,"UPPERCASE",,"Action taken with respect to a device in a study, which may or may not be the device under study","EVENTS","__ACNDEV",,,,,,,,,,,
"Y","AE","AEREL","Causality",340,"C",80,,"text","AEREL",,"Exp",,"RecordQualifier","*",,"UPPERCASE",,"Records the investigator's opinion as to the causality of the event to the treatment. ICH E2A and E2B examples include NOT RELATED, UNLIKELY RELATED, POSSIBLY RELATED, RELATED. Controlled Terminology may be defined in the future. Check with regulatory authority for population of this variable.",,"__REL",,,,,"AEREL",,,,,,
"Y","AE","AERELNST","Relationship to Non-Study Treatment",350,"C",40,,"text",,,"Perm",,"RecordQualifier",,,"UPPERCASE",,"Records the investigator's opinion as to whether the event may have been due to a treatment other than study drug. May be reported as free text. Example: ""MORE LIKELY RELATED TO ASPIRIN USE."".",,"__RELNST",,,,,,,,,,,
"Y","AE","AEPATT","Pattern of Adverse Event",360,"C",80,,"text",,,"Perm",,"RecordQualifier","*",,"UPPERCASE",,"Used to indicate the pattern of the event over time. Examples: INTERMITTENT, CONTINUOUS, SINGLE EVENT.",,"__PATT",,,,,,,,,,,
"Y","AE","AEOUT","Outcome of Adverse Event",370,"C",40,,"text","OUT",,"Perm",,"RecordQualifier","(OUT)",,"UPPERCASE",,"Description of the outcome of an event.",,"__OUT","Y",,"Y",,,,,,,,
"Y","AE","AESCAN","Involves Cancer",380,"C",2,,"text","NY",,"Perm",,"RecordQualifier","(NY)",,"UPPERCASE",,"Was the serious event associated with the development of cancer?",,"__SCAN",,,,,,,,,,,
"Y","AE","AESCONG","Congenital Anomaly or Birth Defect",390,"C",2,,"text","NY",,"Perm",,"RecordQualifier","(NY)",,"UPPERCASE",,"Was the serious event associated with congenital anomaly or birth defect?",,"__SCONG","Y",,"Y",,,,,,,,
"Y","AE","AESDISAB","Persist or Signif Disability/Incapacity",400,"C",2,,"text","NY",,"Perm",,"RecordQualifier","(NY)",,"UPPERCASE",,"Did the serious event result in persistent or significant disability/incapacity?",,"__SDISAB","Y",,"Y",,,,,,,,
"Y","AE","AESDTH","Results in Death",410,"C",2,,"text","NY",,"Perm","Derived","RecordQualifier","(NY)","If AE record exists with AEOUT=FATAL then AESDTH=Y","UPPERCASE",,"Did the serious event result in death?",,"__SDTH","Y",,"Y",,,,,,,,
"Y","AE","AESHOSP","Requires or Prolongs Hospitalization",420,"C",2,,"text","NY",,"Perm",,"RecordQualifier","(NY)",,"UPPERCASE",,"Did the serious event require or prolong hospitalization?",,"__SHOSP","Y",,"Y",,,,,,,,
"Y","AE","AESLIFE","Is Life Threatening",430,"C",2,,"text","NY",,"Perm",,"RecordQualifier","(NY)",,"UPPERCASE",,"Was the serious event life threatening?",,"__SLIFE","Y",,"Y",,,,,,,,
"Y","AE","AESOD","Occurred with Overdose",440,"C",2,,"text","NY",,"Perm",,"RecordQualifier","(NY)",,"UPPERCASE",,"Did the serious event occur with an overdose?",,"__SOD",,,,,,,,,,,
"Y","AE","AESMIE","Other Medically Important Serious Event",450,"C",2,,"text","NY",,"Perm",,"RecordQualifier","(NY)",,"UPPERCASE",,"Do additional categories for seriousness apply?",,"__SMIE","Y",,"Y",,,,,,,,
"Y","AE","AECONTRT","Concomitant or Additional Trtmnt Given",460,"C",2,,"text","NY",,"Perm",,"RecordQualifier","(NY)",,"UPPERCASE",,"Was another treatment given because of the occurrence of the event?",,"__CONTRT",,,,,,,,,,,
"Y","AE","AETOXGR","Standard Toxicity Grade",470,"C",80,,"text",,,"Perm",,"RecordQualifier","*",,"UPPERCASE",,"Toxicity grade according to a standard toxicity scale such as Common Terminology Criteria for Adverse Events v3.0 (CTCAE). Sponsor should specify name of the scale and version used in the metadata (see Assumption 6d). If value is from a numeric scale, represent only the number (e.g., ""2"" and not ""Grade 2"").",,"__TOXGR","Y",,"Y",,,,,,,,
,"AE","AEEPRELI","Epi/Pandemic Related Indicator",480,"C",2,,"text","NY",,"Perm",,"RecordQualifier","(NY)",,"UPPERCASE",,"Non-standard Variable from Guidance for Ongoing Studies Disrupted by COVID-19 Pandemic Version 1.0","NSV","__EPRELI","Y",,"Y",,,,,,80,"sdtme_std_epreli_v$$","Y"
,"AE","ETCD","Element Code",490,"C",8,,"text",,,"Req","Assigned","RecordQualifier","*",,"UPPERCASE","Set based on the SE domain","ETCD (the companion to ELEMENT) is limited to 8 characters and does not have special character restrictions. These values should be short for ease of use in programming, but it is not expected that ETCD will need to serve as a variable name.","NN DEFINED","ETCD",,,,,,,,,50,"sdtme_std_etcd_v$$",
,"AE","ELEMENT","Description of Element",500,"C",40,,"text",,,"Req","Protocol","RecordQualifier","*",,"UPPERCASE","Set based on the SE domain","The name of the Element.","NN DEFINED","ELEMENT",,,,,,,,,50,"sdtme_std_etcd_v$$",
,"AE","EPOCH","Epoch",510,"C",40,,"text","EPOCH",,"Perm","Protocol","Timing","(EPOCH)",,"UPPERCASE","Set based on the SE domain","Epoch associated with the start date/time of the observation, or the date/time of collection if start date/time is not collected. (See Section 3.2.2).","TIMING","EPOCH",,,,,,,,,40,"sdtme_std_epoch_v$$",
"Y","AE","AESTDTC","Start Date/Time of Adverse Event",520,"C",64,,"datetime",,,"Exp",,"Timing","ISO 8601",,"UPPERCASE DATETIME",,,,"__STDTC","Y",,"Y",,,,,,,,
"Y","AE","AEENDTC","End Date/Time of Adverse Event",530,"C",64,,"datetime",,,"Exp",,"Timing","ISO 8601",,"UPPERCASE DATETIME",,,,"__ENDTC","Y",,"Y",,,,,,,,
"Y","AE","AESTDY","Study Day of Start of Adverse Event",540,"N",8,,"integer",,,"Perm","Derived","Timing",,"Calculation: = AESTDTC - RFSTDTC+1 if AESTDTC is on or after RFSTDTC,AESTDTC - RFSTDTC if AESTDTC precedes RFSTDTC",,,"Study day of start of adverse event relative to the sponsor-defined RFSTDTC.",,"__STDY",,,,,,,,,10,"sdtme_std_dy_v$$",
"Y","AE","AEENDY","Study Day of End of Adverse Event",550,"N",8,,"integer",,,"Perm","Derived","Timing",,"Calculation: = AEENDTC - RFSTDTC+1 if AEENDTC is on or after RFSTDTC,AEENDTC - RFSTDTC if AEENDTC precedes RFSTDTC",,,"Study day of end of event relative to the sponsor-defined RFSTDTC.",,"__ENDY",,,,,,,,,10,"sdtme_std_dy_v$$",
"Y","AE","AEDUR","Duration of Adverse Event",560,"C",64,,"text",,,"Perm",,"Timing","ISO 8601",,"UPPERCASE DURATION",,"Collected duration and unit of an adverse event. Used only if collected on the CRF and not derived from start and end date/times. Example: P1DT2H (for 1 day, 2 hours).",,"__DUR","Y",,"Y",,,,,,,,
"Y","AE","AEENRF","End Relative to Reference Period",570,"C",20,,"text","STENRF",,"Perm",,"Timing","(STENRF)",,"UPPERCASE",,"Describes the end of the event relative to the sponsor-defined reference period. The sponsor-defined reference period is a continuous period of time defined by a discrete starting point (RFSTDTC) and a discrete ending point (RFENDTC) of the trial. This variable is proposed for deletion post SDTM V1.4.",,"__ENRF","Y",,"Y",,,,,,,,
,"AE","AESTRTPT","Start Relative to Reference Time Point",580,"C",40,,"text","STENRF",,"Perm","Assigned","Timing","(STENRF)",,"UPPERCASE",,,,"__STRTPT","Y",,"Y",,,,,,,,
,"AE","AESTTPT","Start Reference Time Point",590,"C",40,,"text",,,"Perm","Assigned","Timing",,,"UPPERCASE",,,,"__STTPT","Y",,"Y",,,,,,,,
"Y","AE","AEENRTPT","End Relative to Reference Time Point",600,"C",40,,"text","STENRF",,"Perm","Assigned","Timing","(STENRF)",,"UPPERCASE",,"Identifies the end of the event as being before or after the reference time point defined by variable AEENTPT.",,"__ENRTPT","Y",,"Y",,,,,,,,
"Y","AE","AEENTPT","End Reference Time Point",610,"C",40,,"text",,,"Perm","Assigned","Timing",,,"UPPERCASE",,"Description of date/time in ISO 8601 character format of the reference point referred to by AEENRTPT. Examples: ""2003-12-25"" or ""VISIT 2"".",,"__ENTPT","Y",,"Y",,,,,,,,
,"AG","CDMS_SUB_EVT_NUM","CDMS Repeat Sequence Number",10,"N",8,,"integer",,,"Perm",,"RecordQualifier",,,,,,"NN DEFINED","CDMS_SUB_EVT_NUM",,"src.cdms_sub_evt_num","Y","Y",,,,,,,
,"AG","TOPIC_CD","CDW Topic Code",20,"C",80,,"text",,,"Perm",,"Topic",,,,,,"NN DEFINED","TOPIC_CD",,"src.topic_cd","Y","Y",,,,,,,
,"AG","STUDYID","Study Identifier",30,"C",40,,"text",,,"Req","Protocol","Identifier",,,"UPPERCASE",,,,"STUDYID","*",,"Y",,,,,,,,
,"AG","DOMAIN","Domain Abbreviation",40,"C",8,,"text",,,"Req","Assigned","Identifier",,,"UPPERCASE",,,,"DOMAIN","*",,"Y",,,,,,,,
,"AG","USUBJID","Unique Subject Identifier",50,"C",60,,"text",,,"Req","Assigned","Identifier",,,"UPPERCASE","Concatenation of STUDYID and DM.SUBJID",,,"USUBJID","*",,"Y",,,,,,,,
,"AG","SPDEVID","Sponsor Device Identifier",60,"C",40,,"text",,,"Perm","Assigned","Identifier",,,"UPPERCASE",,"Sponsor-defined identifier for a device","IDENTIFIERS","SPDEVID","Y",,"Y",,,,,,,,
,"AG","AGSEQ","Sequence Number",70,"N",8,,"integer",,,"Req","Derived","Identifier",,"Sequential number identifying records within each USUBJID",,,,,"__SEQ","*",,"Y",,,,,,,,
,"AG","AGGRPID","Group ID",80,"C",60,,"text",,,"Perm",,"Identifier",,,"UPPERCASE",,,,"__GRPID","Y",,"Y",,,,,,,,
,"AG","AGREFID","Reference ID",90,"C",40,,"text",,,"Perm",,"Identifier",,,"UPPERCASE",,"Optional internal or external identifier such as lab specimen ID, or UUID for an ECG waveform or a medical image.","IDENTIFIERS","__REFID","Y",,"Y",,,,,,,,
,"AG","AGSPID","Sponsor-Defined Identifier",100,"C",40,,"text",,,"Perm","Assigned","Identifier",,,"UPPERCASE","System generated unique identifier, can be used as reference to the ADaM domains",,,"__SPID","*",,"Y",,,,,,,,
,"AG","AGLNKID","Link ID",110,"C",40,,"text",,,"Perm",,"Identifier",,,"UPPERCASE",,"Identifier used to link related records across domains. This may be a one-to- one or a one-to-many relationship. For Example: A single tumor may have multiple measurements/assessments performed at each study visit.","IDENTIFIERS","__LNKID","Y",,"Y",,,,,,,,
,"AG","AGLNKGRP","Link Group ID",120,"C",40,,"text",,,"Perm","Assigned","Identifier",,,"UPPERCASE",,"Identifier used to link related records across domains. This will usually be a many-to-one relationship. For example: Multiple tumor measurements/assessments will contribute to a single response to therapy determination record.","IDENTIFIERS","__LNKGRP","Y",,"Y",,,,,,,,
,"AG","AGTRT","Name of Treatment",130,"C",200,,"text",,,"Req",,"Topic","*",,"UPPERCASE",,,,"__TRT","Y",,"Y",,,,,,,,
,"AG","AGMODIFY","Modified Treatment Name",140,"C",200,,"text",,,"Perm",,"SynonymQualifier",,,"UPPERCASE",,,,"__MODIFY","Y",,"Y",,,,,,,,
,"AG","AGDECOD","Standardized Treatment Name",150,"C",200,,"text",,,"Perm","Assigned","SynonymQualifier","*",,"MIXEDCASE",,,,"__DECOD","Y",,"Y",,,,,,,,
,"AG","AGCAT","Category",160,"C",60,,"text","AGCAT",,"Perm","Assigned","GroupingQualifier","*",,"UPPERCASE",,,,"__CAT","Y","src.cat","Y",,,,,,,,
,"AG","AGSCAT","Subcategory",170,"C",60,,"text",,,"Perm","Assigned","GroupingQualifier","*",,"UPPERCASE",,,,"__SCAT","Y","src.sub_cat","Y",,,,,,,,
,"AG","AGPRESP","Pre-specified",180,"C",2,,"text","NY",,"Perm",,"VariableQualifier","(NY)",,"UPPERCASE",,,,"__PRESP","Y",,"Y",,,,,,,,"Y"
,"AG","AGOCCUR","Occurrence",190,"C",2,,"text","NY",,"Perm",,"RecordQualifier","(NY)",,"UPPERCASE",,,,"__OCCUR","Y",,"Y",,,,,,,,"Y|N"
,"AG","AGSTAT","Completion Status",200,"C",40,,"text","ND",,"Perm","Derived","RecordQualifier","(ND)","Set to NOT DONE if 'ND', 'NA', 'NK' ,' ' have been reported on CRF","UPPERCASE","Set to NOT DONE if 'ND', 'NA', 'NK' ,' ' have been reported on CRF",,,"__STAT","Y",,"Y",,,,,,,,
,"AG","AGREASND","Reason Not Done",210,"C",200,,"text",,,"Perm",,"RecordQualifier",,,"UPPERCASE",,,,"__REASND","Y",,"Y",,,,,,,,
,"AG","AGCLAS","Class",220,"C",200,,"text",,,"Perm",,"VariableQualifier","*",,"UPPERCASE",,,,"__CLAS","Y",,"Y",,,,,,,,
,"AG","AGCLASCD","Class Code",230,"C",40,,"text",,,"Perm",,"VariableQualifier","*",,"UPPERCASE",,,,"__CLASCD","Y",,"Y",,,,,,,,
,"AG","AGDOSE","Dose",240,"N",8,8.3,"float",,,"Perm",,"RecordQualifier",,,,,,,"__DOSE","Y",,"Y",,,,,,,,
,"AG","AGDOSTXT","Dose Description",250,"C",200,,"text",,,"Perm",,"RecordQualifier",,,"UPPERCASE",,,,"__DOSTXT","Y",,"Y",,,,,,,,
,"AG","AGDOSU","Dose Units",260,"C",40,,"text","UNIT",,"Perm",,"VariableQualifier","(UNIT)",,"MIXEDCASE",,,,"__DOSU","Y",,"Y",,,,,,,,
,"AG","AGDOSFRM","Dose Form",270,"C",80,,"text","FRM",,"Perm",,"VariableQualifier","(FRM)",,"UPPERCASE",,,,"__DOSFRM","Y",,"Y",,,,,,,,
,"AG","AGDOSFRQ","Dosing Frequency per Interval",280,"C",40,,"text","FREQ",,"Perm",,"VariableQualifier","(FREQ)",,"UPPERCASE",,,,"__DOSFRQ","Y",,"Y",,,,,,,,
,"AG","AGROUTE","Route of Administration",290,"C",40,,"text","ROUTE",,"Perm",,"VariableQualifier","(ROUTE)",,"UPPERCASE",,,,"__ROUTE","Y",,"Y",,,,,,,,
,"AG","ETCD","Element Code",300,"C",8,,"text",,,"Req","Assigned","RecordQualifier","*",,"UPPERCASE","Set based on the SE domain","ETCD (the companion to ELEMENT) is limited to 8 characters and does not have special character restrictions. These values should be short for ease of use in programming, but it is not expected that ETCD will need to serve as a variable name.","NN DEFINED","ETCD",,,,,,,,,50,"sdtme_std_etcd_v$$",
,"AG","ELEMENT","Description of Element",310,"C",40,,"text",,,"Req","Protocol","RecordQualifier","*",,"UPPERCASE","Set based on the SE domain","The name of the Element.","NN DEFINED","ELEMENT",,,,,,,,,50,"sdtme_std_etcd_v$$",
,"AG","VISITNUM","Visit Number",320,"N",8,8.1,"float",,,"Exp","Protocol","Timing",,,,"Multiple unscheduled visits or non-visits can exist having the same visit ID but with different dates. This might result in duplicate records for the same visit number but with different dates",,,"VISITNUM",,"src.vis_id","Y",,,,,,,,
,"AG","VISIT","Visit Name",330,"C",40,,"text",,,"Perm","Protocol","Timing",,,"UPPERCASE",,,,"VISIT",,,,,,,,,10,"sdtme_std_visit_v$$",
,"AG","VISITDY","Planned Study Day of Visit",340,"N",8,,"integer",,,"Perm","Assigned","Timing",,,,"Based on TV.VISITDY",,,"VISITDY",,,,,,,,,20,"sdtme_std_visitdy_v$$",
,"AG","EPOCH","Epoch",350,"C",40,,"text","EPOCH",,"Perm","Protocol","Timing","(EPOCH)",,"UPPERCASE","Set based on the SE domain","Epoch associated with the start date/time of the observation, or the date/time of collection if start date/time is not collected. (See Section 3.2.2).","TIMING","EPOCH",,,,,,,,,40,"sdtme_std_epoch_v$$",
,"AG","AGSTDTC","Start Date/Time of Observation",360,"C",64,,"datetime",,,"Perm",,"Timing","ISO 8601",,"UPPERCASE DATETIME",,,,"__STDTC","Y",,"Y",,,,,,,,
,"AG","AGENDTC","End Date/Time of Observation",370,"C",64,,"datetime",,,"Perm",,"Timing","ISO 8601",,"UPPERCASE DATETIME",,,,"__ENDTC","Y",,"Y",,,,,,,,
,"AG","AGSTDY","Study Day of Start of Observation",380,"N",8,,"integer",,,"Perm","Derived","Timing",,"Calculation: = AGSTDTC - RFSTDTC+1 if AGSTDTC is on or after RFSTDTC,AGSTDTC - RFSTDTC if AGSTDTC precedes RFSTDTC",,,,,"__STDY",,,,,,,,,30,"sdtme_std_dy_v$$",
,"AG","AGENDY","Study Day of End of Observation",390,"N",8,,"integer",,,"Perm","Derived","Timing",,"Calculation: = AGENDTC - RFSTDTC+1 if AGENDTC is on or after RFSTDTC,AGENDTC - RFSTDTC if AGENDTC precedes RFSTDTC",,,,,"__ENDY",,,,,,,,,30,"sdtme_std_dy_v$$",
,"AG","AGDUR","Duration",400,"C",64,,"text",,,"Perm",,"Timing","ISO 8601",,"UPPERCASE DURATION",,,,"__DUR","Y",,"Y",,,,,,,,
,"AG","AGTPT","Planned Time Point Name",410,"C",80,,"text",,,"Perm",,"Timing",,,"UPPERCASE",,"Text description of time when a measurement or observation should be taken as defined in the protocol. This may be represented as an elapsed time relative to a fixed reference point, such as time of last dose. See --TPTNUM and -- TPTREF.","TIMING","__TPT","Y",,"Y",,,,,,,,
,"AG","AGTPTNUM","Planned Time Point Number",420,"N",8,8.1,"float",,,"Perm",,"Timing",,,,,"Numeric version of planned time point used in sorting.","TIMING","__TPTNUM","Y",,"Y",,,,,,,,
,"AG","AGELTM","Planned Elapsed Time from Time Point Ref",430,"C",64,,"text",,,"Perm",,"Timing","ISO 8601",,"UPPERCASE DURATION",,"Planned Elapsed time in ISO 8601 character format relative to a planned fixed reference (--TPTREF) such as ""Previous Dose"" or ""Previous Meal"". This variable is useful where there are repetitive measures. Not a clock time or a date/time variable, but an interval, represented as ISO duration.","TIMING","__ELTM","Y",,"Y",,,,,,,,
,"AG","AGTPTREF","Time Point Reference",440,"C",40,,"text",,,"Perm",,"Timing",,,"UPPERCASE",,"Description of the fixed reference point referred to by --ELTM, --TPTNUM, and --TPT. Examples: PREVIOUS DOSE, PREVIOUS MEAL.","TIMING","__TPTREF","Y",,"Y",,,,,,,,
,"AG","AGRFTDTC","Date/Time of Reference Time Point",450,"C",64,,"datetime",,,"Perm",,"Timing","ISO 8601",,"UPPERCASE DATETIME",,"Date/time for a fixed reference time point defined by --TPTREF in ISO 8601 character format.","TIMING","__RFTDTC","Y",,"Y",,,,,,,,
,"AG","AGSTRF","Start Relative to Reference Period",460,"C",20,,"text","STENRF",,"Perm",,"Timing","(STENRF)",,"UPPERCASE",,,,"__STRF","Y",,"Y",,,,,,,,
,"AG","AGENRF","End Relative to Reference Period",470,"C",20,,"text","STENRF",,"Perm",,"Timing","(STENRF)",,"UPPERCASE",,,,"__ENRF","Y",,"Y",,,,,,,,
,"AG","AGSTRTPT","Start Relative to Reference Time Point",480,"C",40,,"text","STENRF",,"Perm",,"Timing","(STENRF)",,"UPPERCASE",,,,"__STRTPT","Y",,"Y",,,,,,,,
,"AG","AGSTTPT","Start Reference Time Point",490,"C",40,,"text",,,"Perm",,"Timing",,,"UPPERCASE",,,,"__STTPT","Y",,"Y",,,,,,,,
,"AG","AGENRTPT","End Relative to Reference Time Point",500,"C",40,,"text","STENRF",,"Perm",,"Timing","(STENRF)",,"UPPERCASE",,,,"__ENRTPT","Y",,"Y",,,,,,,,
,"AG","AGENTPT","End Reference Time Point",510,"C",40,,"text",,,"Perm",,"Timing",,,"UPPERCASE",,,,"__ENTPT","Y",,"Y",,,,,,,,
"Y","APAE","STUDYID","Study Identifier",10,"C",40,,"text",,,"Req","Protocol","Identifier",,,"UPPERCASE",,"Unique identifier for a study.",,"STUDYID","*",,"Y",,,,,,,,
"Y","APAE","DOMAIN","Domain Abbreviation",20,"C",8,,"text",,,"Req","Assigned","Identifier",,,"UPPERCASE",,"Four-character abbreviation for the domain, AP--.",,"DOMAIN","*",,"Y",,,,,,70,"sdtme_std_qnam_v$$",
"Y","APAE","APID","Associated Persons Identifier",30,"C",60,,"text",,,"Req",,"Identifier",,,"UPPERCASE",,"Identifier for a single associated person, a group of associated persons, or a pool of associated persons. If APID identifies a pool, POOLDEF records must exist for each associated person.",,"APID","Y",,"Y",,,,,,,,
"Y","APAE","AESEQ","Sequence Number",40,"N",8,,"integer",,,"Req","Assigned","Identifier",,,,,"Sequence number to ensure uniqueness of records within a domain for associated persons. Unique within APID within the domain.",,"__SEQ","*",,"Y",,,,,,,,
"Y","APAE","RSUBJID","Related Subject",50,"C",60,,"text",,,"Exp",,"Identifier",,,"UPPERCASE",,"Identifier for a related study subject or pool of study subjects. The subject(s) may be human or animal. RSUBJID will be populated with the USUBJID of the related subject or the POOLID of the related pool. RSUBJID will be null for data about associated persons who are related to the study but not to any of the study subjects.",,"RSUBJID","Y",,"Y",,,,,,,,
,"APAE","APAESPID","Sponsor-Defined Identifier",60,"C",40,,"text",,,"Perm","Assigned","Identifier",,,"UPPERCASE","System generated unique identifier, required for Enriched SDTM generation.",,"IDENTIFIERS","__SPID","*",,"Y","Y",,,,,,,
"Y","APAE","RDEVID","Related Device",70,"C",40,,"text",,,"Perm",,"RecordQualifier",,,"UPPERCASE",,"Identifier for a related device. RDEVID will be populated with the SPDEVID of the related device.",,"RDEVID","Y",,"Y",,,,,,,,
"Y","APAE","SREL","Subject, Device, or Study Relationship",80,"C",40,,"text","RELSUB",,"Req",,"RecordQualifier","(RELSUB)",,"UPPERCASE",,"If RSUBJID is populated, describes the relationship of the associated person(s) identified in APID to the subject or pool identified in RSUBJID. If RDEVID is populated, describes the relationship of the associated person(s) identified in APID to the device identified in RDEVID. If RSUBJID and RDEVID are null, SREL describes the relationship of the associated person(s) identified in APID to the study identified in STUDYID.",,"SREL","Y",,"Y",,,,,,,,
,"APAE","USUBJID","Unique Subject Identifier",90,"C",60,,"text",,,"Req","Assigned","Identifier",,,"UPPERCASE","Concatenation of STUDYID and DM.SUBJID (This is a variable for internal system use)","Identifier used to uniquely identify a subject across all studies for all applications or submissions involving the product.","NN DEFINED","USUBJID","*",,"Y","Y",,,,,,,
,"APAE","AEGRPID","Group ID",100,"C",60,,"text",,,"Perm",,"Identifier",,,"UPPERCASE",,"Used to tie together a block of related records in a single domain for a subject.",,"__GRPID","Y",,"Y",,,,,,,,
,"APAE","AEREFID","Reference ID",110,"C",40,,"text",,,"Perm",,"Identifier",,,"UPPERCASE",,"Internal or external identifier such as a serial number on an SAE reporting form.",,"__REFID","Y",,"Y",,,,,,,,
"Y","APAE","AESPID","Sponsor-Defined Identifier",120,"C",40,,"text",,,"Perm","Assigned","Identifier",,,"UPPERCASE","Sponsor-defined identifier. Example: pre-printed line identifier on a Concomitant Medications page.","Sponsor-defined identifier. Example: pre-printed line identifier on a Concomitant Medications page.",,"__SPID","*",,"Y",,,,,,,,
,"APAE","AELNKID","Link ID",130,"C",40,,"text",,,"Perm","Assigned","Identifier",,,"UPPERCASE",,"Identifier used to link related records across domains. This may be a one-to- one or a one-to-many relationship. For Example: A single tumor may have multiple measurements/assessments performed at each study visit.","IDENTIFIERS","__LNKID","Y",,"Y",,,,,,,,
,"APAE","AELNKGRP","Link Group ID",140,"C",40,,"text",,,"Perm","Assigned","Identifier",,,"UPPERCASE",,"Identifier used to link related records across domains. This will usually be a many-to-one relationship. For example: Multiple tumor measurements/assessments will contribute to a single response to therapy determination record.","IDENTIFIERS","__LNKGRP","Y",,"Y",,,,,,,,
,"APAE","AETERM","Reported Term for the Adverse Event",150,"C",200,,"text",,,"Req",,"Topic",,,"UPPERCASE",,"Verbatim name of the event.",,"__TERM","Y",,"Y",,,,,,,,
,"APAE","AEMODIFY","Modified Reported Term",160,"C",200,,"text",,,"Perm",,"SynonymQualifier",,,"UPPERCASE",,"If AETERM is modified to facilitate coding, then AEMODIFY will contain the modified text.",,"__MODIFY","Y",,"Y",,,,,,,,
,"APAE","AELLT","Lowest Level Term",170,"C",200,,"text",,,"Exp","Assigned","VariableQualifier","MedDRA",,"MIXEDCASE",,"Dictionary-derived text description of the Lowest Level Term.",,"__LLT",,,,,,,,,30,"sdtme_std_cd_v$$",
,"APAE","AELLTCD","Lowest Level Term Code",180,"N",8,,"integer",,,"Exp","Assigned","VariableQualifier","MedDRA",,,,"Dictionary-derived code for the Lowest Level Term.",,"__LLTCD","Y",,"Y",,,,,,30,"sdtme_std_cd_v$$",
,"APAE","AEDECOD","Dictionary-Derived Term",190,"C",200,,"text",,,"Req","Assigned","SynonymQualifier","MedDRA",,"MIXEDCASE",,"Dictionary-derived text description of AETERM or AEMODIFY. Equivalent to the Preferred Term (PT in MedDRA). The sponsor is expected to provide the dictionary name and version used to map the terms utilizing the define.xml external codelist attributes.",,"__DECOD",,,,,,,,,30,"sdtme_std_cd_v$$",
,"APAE","AEPTCD","Preferred Term Code",200,"N",8,,"integer",,,"Exp","Assigned","VariableQualifier","MedDRA",,,,"Dictionary-derived code for the Preferred Term.",,"__PTCD",,,,,,,,,30,"sdtme_std_cd_v$$",
,"APAE","AEHLT","High Level Term",210,"C",200,,"text",,,"Exp","Assigned","VariableQualifier","MedDRA",,"MIXEDCASE",,"Dictionary-derived text description of the High Level Term for the primary System Organ Class.",,"__HLT",,,,,,,,,30,"sdtme_std_cd_v$$",
,"APAE","AEHLTCD","High Level Term Code",220,"N",8,,"integer",,,"Exp","Assigned","VariableQualifier","MedDRA",,,,"Dictionary-derived code for the High Level Term for the primary System Organ Class.",,"__HLTCD",,,,,,,,,30,"sdtme_std_cd_v$$",
,"APAE","AEHLGT","High Level Group Term",230,"C",200,,"text",,,"Exp","Assigned","VariableQualifier","MedDRA",,"MIXEDCASE",,"Dictionary-derived text description of the High Level Group Term for the primary System Organ Class.",,"__HLGT",,,,,,,,,30,"sdtme_std_cd_v$$",
,"APAE","AEHLGTCD","High Level Group Term Code",240,"N",8,,"integer",,,"Exp","Assigned","VariableQualifier","MedDRA",,,,"Dictionary-derived code for the High Level Group Term for the primary System Organ Class.",,"__HLGTCD",,,,,,,,,30,"sdtme_std_cd_v$$",
,"APAE","AECAT","Category for Adverse Event",250,"C",60,,"text",,,"Perm","Assigned","GroupingQualifier","*",,"UPPERCASE",,"Used to define a category of related records. Example: BLEEDING, NEUROPSYCHIATRIC.",,"__CAT","Y",,"Y",,,,,,,,
,"APAE","AESCAT","Subcategory for Adverse Event",260,"C",60,,"text",,,"Perm","Assigned","GroupingQualifier","*",,"UPPERCASE",,"A further categorization of adverse event. Example: NEUROLOGIC.",,"__SCAT","Y",,"Y",,,,,,,,
,"APAE","AEPRESP","Pre-Specified Adverse Event",270,"C",2,,"text","NY",,"Perm",,"VariableQualifier","(NY)",,"UPPERCASE",,"A value of ""Y"" indicates that this adverse event was pre-specified on the CRF. Values are null for spontaneously reported events (i.e., those collected as free- text verbatim terms)",,"__PRESP","Y",,"Y",,,,,,,,"Y"
,"APAE","AEBODSYS","Body System or Organ Class",280,"C",200,,"text",,,"Exp","Assigned","RecordQualifier","MedDRA",,"MIXEDCASE",,"Dictionary derived. Body system or organ class used by the sponsor from the coding dictionary (e.g., MedDRA). When using a multi-axial dictionary such as MedDRA, this should contain the SOC used for the sponsor's analyses and summary tables which may not necessarily be the primary SOC.",,"__BODSYS",,,,,,,,,30,"sdtme_std_cd_v$$",
,"APAE","AEBDSYCD","Body System or Organ Class Code",290,"N",8,,"integer",,,"Exp","Assigned","VariableQualifier","MedDRA",,,,"Dictionary derived. Code for the body system or organ class used by the sponsor. When using a multi-axial dictionary such as MedDRA, this should contain the SOC used for the sponsor's analyses and summary tables, which may not necessarily be the primary SOC.",,"__BDSYCD",,,,,,,,,30,"sdtme_std_cd_v$$",
,"APAE","AESOC","Primary System Organ Class",300,"C",200,,"text",,,"Exp","Assigned","VariableQualifier","MedDRA",,"MIXEDCASE",,"Dictionary-derived text description of the primary System Organ Class. Will be the same as AEBODSYS if the primary SOC was used for analysis.",,"__SOC",,,,,,,,,30,"sdtme_std_cd_v$$",
,"APAE","AESOCCD","Primary System Organ Class Code",310,"N",8,,"integer",,,"Exp","Assigned","VariableQualifier","MedDRA",,,,"Dictionary-derived code for the primary System Organ Class. Will be the same as AEBDSYCD if the primary SOC was used for analysis.",,"__SOCCD",,,,,,,,,30,"sdtme_std_cd_v$$",
,"APAE","AELOC","Location of Event",320,"C",100,,"text","LOC",,"Perm",,"RecordQualifier","(LOC)",,"UPPERCASE",,"Describes anatomical location relevant for the event (e.g., ARM for skin rash).",,"__LOC","Y",,"Y",,,,,,,,
,"APAE","AESEV","Severity/Intensity",330,"C",80,,"text","AESEV",,"Perm",,"RecordQualifier","(AESEV)",,"UPPERCASE",,"The severity or intensity of the event. Examples: MILD, MODERATE, SEVERE.",,"__SEV","Y",,"Y",,,,,,,,
,"APAE","AESER","Serious Event",340,"C",2,,"text","NY",,"Exp",,"RecordQualifier","(NY)",,"UPPERCASE",,"Is this a serious event?",,"__SER","Y",,"Y",,,,,,,,
,"APAE","AEACN","Action Taken with Study Treatment",350,"C",40,,"text","ACN",,"Exp",,"RecordQualifier","(ACN)",,"UPPERCASE",,"Describes changes to the study treatment as a result of the event. AEACN is specifically for the relationship to study treatment. AEACNOTH is for actions unrelated to dose adjustments of study treatment. Examples of AEACN values include ICH E2B values: DRUG WITHDRAWN, DOSE REDUCED, DOSE INCREASED, DOSE NOT CHANGED, UNKNOWN or NOT APPLICABLE.",,"__ACN",,,,,,,,,,,
,"APAE","AEACNOTH","Other Action Taken",360,"C",200,,"text",,,"Perm",,"RecordQualifier",,,"UPPERCASE",,"Describes other actions taken as a result of the event that are unrelated to dose adjustments of study treatment. Usually reported as free text. Example: ""TREATMENT UNBLINDED. PRIMARY CARE PHYSICIAN NOTIFIED.""",,"__ACNOTH","Y",,"Y",,,,,,,,
,"APAE","AEREL","Causality",370,"C",80,,"text","AEREL",,"Exp",,"RecordQualifier","*",,"UPPERCASE",,"Records the investigator's opinion as to the causality of the event to the treatment. ICH E2A and E2B examples include NOT RELATED, UNLIKELY RELATED, POSSIBLY RELATED, RELATED. Controlled Terminology may be defined in the future. Check with regulatory authority for population of this variable.",,"__REL",,,,,,,,,,,
,"APAE","AERELNST","Relationship to Non-Study Treatment",380,"C",40,,"text",,,"Perm",,"RecordQualifier",,,"UPPERCASE",,"Records the investigator's opinion as to whether the event may have been due to a treatment other than study drug. May be reported as free text. Example: ""MORE LIKELY RELATED TO ASPIRIN USE."".",,"__RELNST",,,,,,,,,,,
,"APAE","AEPATT","Pattern of Adverse Event",390,"C",80,,"text",,,"Perm",,"RecordQualifier","*",,"UPPERCASE",,"Used to indicate the pattern of the event over time. Examples: INTERMITTENT, CONTINUOUS, SINGLE EVENT.",,"__PATT",,,,,,,,,,,
,"APAE","AEOUT","Outcome of Adverse Event",400,"C",40,,"text","OUT",,"Perm",,"RecordQualifier","(OUT)",,"UPPERCASE",,"Description of the outcome of an event.",,"__OUT","Y",,"Y",,,,,,,,
,"APAE","AESCAN","Involves Cancer",410,"C",2,,"text","NY",,"Perm",,"RecordQualifier","(NY)",,"UPPERCASE",,"Was the serious event associated with the development of cancer?",,"__SCAN",,,,,,,,,,,
,"APAE","AESCONG","Congenital Anomaly or Birth Defect",420,"C",2,,"text","NY",,"Perm",,"RecordQualifier","(NY)",,"UPPERCASE",,"Was the serious event associated with congenital anomaly or birth defect?",,"__SCONG","Y",,"Y",,,,,,,,
,"APAE","AESDISAB","Persist or Signif Disability/Incapacity",430,"C",2,,"text","NY",,"Perm",,"RecordQualifier","(NY)",,"UPPERCASE",,"Did the serious event result in persistent or significant disability/incapacity?",,"__SDISAB","Y",,"Y",,,,,,,,
,"APAE","AESDTH","Results in Death",440,"C",2,,"text","NY",,"Perm","Derived","RecordQualifier","(NY)","If AE record exists with AEOUT=FATAL then AESDTH=Y","UPPERCASE",,"Did the serious event result in death?",,"__SDTH","Y",,"Y",,,,,,,,
,"APAE","AESHOSP","Requires or Prolongs Hospitalization",450,"C",2,,"text","NY",,"Perm",,"RecordQualifier","(NY)",,"UPPERCASE",,"Did the serious event require or prolong hospitalization?",,"__SHOSP","Y",,"Y",,,,,,,,
,"APAE","AESLIFE","Is Life Threatening",460,"C",2,,"text","NY",,"Perm",,"RecordQualifier","(NY)",,"UPPERCASE",,"Was the serious event life threatening?",,"__SLIFE","Y",,"Y",,,,,,,,
,"APAE","AESOD","Occurred with Overdose",470,"C",2,,"text","NY",,"Perm",,"RecordQualifier","(NY)",,"UPPERCASE",,"Did the serious event occur with an overdose?",,"__SOD",,,,,,,,,,,
,"APAE","AESMIE","Other Medically Important Serious Event",480,"C",2,,"text","NY",,"Perm",,"RecordQualifier","(NY)",,"UPPERCASE",,"Do additional categories for seriousness apply?",,"__SMIE","Y",,"Y",,,,,,,,
,"APAE","AECONTRT","Concomitant or Additional Trtmnt Given",490,"C",2,,"text","NY",,"Perm",,"RecordQualifier","(NY)",,"UPPERCASE",,"Was another treatment given because of the occurrence of the event?",,"__CONTRT",,,,,,,,,,,
,"APAE","AETOXGR","Standard Toxicity Grade",500,"C",80,,"text",,,"Perm",,"RecordQualifier","*",,"UPPERCASE",,"Toxicity grade according to a standard toxicity scale such as Common Terminology Criteria for Adverse Events v3.0 (CTCAE). Sponsor should specify name of the scale and version used in the metadata (see Assumption 6d). If value is from a numeric scale, represent only the number (e.g., ""2"" and not ""Grade 2"").",,"__TOXGR","Y",,"Y",,,,,,,,
,"APAE","AEEPRELI","Epi/Pandemic Related Indicator",510,"C",2,,"text","NY",,"Perm",,"RecordQualifier","(NY)",,"UPPERCASE",,"Non-standard Variable from Guidance for Ongoing Studies Disrupted by COVID-19 Pandemic Version 1.0","NSV","__EPRELI","Y",,"Y",,,,,,80,"sdtme_std_epreli_v$$","Y"
,"APAE","ETCD","Element Code",520,"C",8,,"text",,,"Req","Assigned","RecordQualifier","*",,"UPPERCASE","Set based on the SE domain","ETCD (the companion to ELEMENT) is limited to 8 characters and does not have special character restrictions. These values should be short for ease of use in programming, but it is not expected that ETCD will need to serve as a variable name.","NN DEFINED","ETCD",,,,,,,,,50,"sdtme_std_etcd_v$$",
,"APAE","ELEMENT","Description of Element",530,"C",40,,"text",,,"Req","Protocol","RecordQualifier","*",,"UPPERCASE","Set based on the SE domain","The name of the Element.","NN DEFINED","ELEMENT",,,,,,,,,50,"sdtme_std_etcd_v$$",
,"APAE","EPOCH","Epoch",540,"C",40,,"text","EPOCH",,"Perm","Protocol","Timing","(EPOCH)",,"UPPERCASE","Set based on the SE domain","Epoch associated with the start date/time of the observation, or the date/time of collection if start date/time is not collected. (See Section 3.2.2).","TIMING","EPOCH",,,,,,,,,40,"sdtme_std_epoch_v$$",
,"APAE","AESTDTC","Start Date/Time of Adverse Event",550,"C",64,,"datetime",,,"Exp",,"Timing","ISO 8601",,"UPPERCASE DATETIME",,,,"__STDTC","Y",,"Y",,,,,,,,
,"APAE","AEENDTC","End Date/Time of Adverse Event",560,"C",64,,"datetime",,,"Exp",,"Timing","ISO 8601",,"UPPERCASE DATETIME",,,,"__ENDTC","Y",,"Y",,,,,,,,
,"APAE","AESTDY","Study Day of Start of Adverse Event",570,"N",8,,"integer",,,"Perm","Derived","Timing",,"Calculation: = AESTDTC - RFSTDTC+1 if AESTDTC is on or after RFSTDTC,AESTDTC - RFSTDTC if AESTDTC precedes RFSTDTC",,,"Study day of start of adverse event relative to the sponsor-defined RFSTDTC.",,"__STDY",,,,,,,,,10,"sdtme_std_dy_v$$",
,"APAE","AEENDY","Study Day of End of Adverse Event",580,"N",8,,"integer",,,"Perm","Derived","Timing",,"Calculation: = AEENDTC - RFSTDTC+1 if AEENDTC is on or after RFSTDTC,AEENDTC - RFSTDTC if AEENDTC precedes RFSTDTC",,,"Study day of end of event relative to the sponsor-defined RFSTDTC.",,"__ENDY",,,,,,,,,10,"sdtme_std_dy_v$$",
,"APAE","AEDUR","Duration of Adverse Event",590,"C",64,,"text",,,"Perm",,"Timing","ISO 8601",,"UPPERCASE DURATION",,"Collected duration and unit of an adverse event. Used only if collected on the CRF and not derived from start and end date/times. Example: P1DT2H (for 1 day, 2 hours).",,"__DUR","Y",,"Y",,,,,,,,
,"APAE","AEENRF","End Relative to Reference Period",600,"C",20,,"text","STENRF",,"Perm",,"Timing","(STENRF)",,"UPPERCASE",,"Describes the end of the event relative to the sponsor-defined reference period. The sponsor-defined reference period is a continuous period of time defined by a discrete starting point (RFSTDTC) and a discrete ending point (RFENDTC) of the trial. This variable is proposed for deletion post SDTM V1.4.",,"__ENRF","Y",,"Y",,,,,,,,
,"APAE","AESTRTPT","Start Relative to Reference Time Point",610,"C",40,,"text","STENRF",,"Perm","Assigned","Timing","(STENRF)",,"UPPERCASE",,,,"__STRTPT","Y",,"Y",,,,,,,,
,"APAE","AESTTPT","Start Reference Time Point",620,"C",40,,"text",,,"Perm","Assigned","Timing",,,"UPPERCASE",,,,"__STTPT","Y",,"Y",,,,,,,,
,"APAE","AEENRTPT","End Relative to Reference Time Point",630,"C",40,,"text","STENRF",,"Perm","Assigned","Timing","(STENRF)",,"UPPERCASE",,"Identifies the end of the event as being before or after the reference time point defined by variable AEENTPT.",,"__ENRTPT","Y",,"Y",,,,,,,,
,"APAE","AEENTPT","End Reference Time Point",640,"C",40,,"text",,,"Perm","Assigned","Timing",,,"UPPERCASE",,"Description of date/time in ISO 8601 character format of the reference point referred to by AEENRTPT. Examples: ""2003-12-25"" or ""VISIT 2"".",,"__ENTPT","Y",,"Y",,,,,,,,
,"APAE","AEACNDEV","Action Taken with Device",650,"C",80,,"text","AEACNDEV",,"Perm",,"RecordQualifier","*",,"UPPERCASE",,"Action taken with respect to a device in a study, which may or may not be the device under study","EVENTS","__ACNDEV",,,,,,,,,,,
,"APCE","CDMS_SUB_EVT_NUM","CDMS Repeat Sequence Number",10,"N",8,,"integer",,,"Perm",,"RecordQualifier",,,,,,"NN DEFINED","CDMS_SUB_EVT_NUM",,"src.cdms_sub_evt_num","Y","Y",,,,,,,
,"APCE","TOPIC_CD","CDW Topic Code",20,"C",80,,"text",,,"Perm",,"Topic",,,,,,"NN DEFINED","TOPIC_CD",,"src.topic_cd","Y","Y",,,,,,,
"Y","APCE","STUDYID","Study Identifier",30,"C",40,,"text",,,"Req","Protocol","Identifier",,,"UPPERCASE",,"Unique identifier for a study.",,"STUDYID","*",,"Y",,,,,,,,
"Y","APCE","DOMAIN","Domain Abbreviation",40,"C",8,,"text",,,"Req","Assigned","Identifier",,,"UPPERCASE",,"Four-character abbreviation for the domain, AP--.",,"DOMAIN","*",,"Y",,,,,,,,
"Y","APCE","APID","Associated Persons Identifier",50,"C",60,,"text",,,"Req",,"Identifier",,,"UPPERCASE",,"Identifier for a single associated person, a group of associated persons, or a pool of associated persons. If APID identifies a pool, POOLDEF records must exist for each associated person.",,"APID","Y",,"Y",,,,,,,,
"Y","APCE","CESEQ","Sequence Number",60,"N",8,,"integer",,,"Req","Assigned","Identifier",,,,,"Sequence number to ensure uniqueness of records within a domain for associated persons. Unique within APID within the domain.",,"__SEQ","*",,"Y",,,,,,,,
"Y","APCE","RSUBJID","Related Subject",70,"C",60,,"text",,,"Exp",,"Identifier",,,"UPPERCASE",,"Identifier for a related study subject or pool of study subjects. The subject(s) may be human or animal. RSUBJID will be populated with the USUBJID of the related subject or the POOLID of the related pool. RSUBJID will be null for data about associated persons who are related to the study but not to any of the study subjects.",,"RSUBJID","Y",,"Y",,,,,,,,
,"APCE","APCESPID","Sponsor-Defined Identifier",80,"C",40,,"text",,,"Perm","Assigned","Identifier",,,"UPPERCASE","System generated unique identifier, required for Enriched SDTM generation.",,"IDENTIFIERS","__SPID","*",,"Y","Y",,,,,,,
"Y","APCE","RDEVID","Related Device",90,"C",40,,"text",,,"Perm",,"RecordQualifier",,,"UPPERCASE",,"Identifier for a related device. RDEVID will be populated with the SPDEVID of the related device.",,"RDEVID","Y",,"Y",,,,,,,,
"Y","APCE","SREL","Subject, Device, or Study Relationship",100,"C",40,,"text","RELSUB",,"Req",,"RecordQualifier","(RELSUB)",,"UPPERCASE",,"If RSUBJID is populated, describes the relationship of the associated person(s) identified in APID to the subject or pool identified in RSUBJID. If RDEVID is populated, describes the relationship of the associated person(s) identified in APID to the device identified in RDEVID. If RSUBJID and RDEVID are null, SREL describes the relationship of the associated person(s) identified in APID to the study identified in STUDYID.",,"SREL","Y",,"Y",,,,,,,,
,"APCE","USUBJID","Unique Subject Identifier",110,"C",60,,"text",,,"Req","Assigned","Identifier",,,"UPPERCASE","Concatenation of STUDYID and DM.SUBJID (This is a variable for internal system use)","Identifier used to uniquely identify a subject across all studies for all applications or submissions involving the product.","NN DEFINED","USUBJID","*",,"Y","Y",,,,,,,
,"APCE","CEGRPID","Group ID",120,"C",60,,"text",,,"Perm",,"Identifier",,,"UPPERCASE",,"Used to tie together a block of related records for a subject within a domain.",,"__GRPID","Y",,"Y",,,,,,,,
,"APCE","CEREFID","Reference ID",130,"C",40,,"text",,,"Perm",,"Identifier",,,"UPPERCASE",,"Internal or external identifier.",,"__REFID","Y",,"Y",,,,,,,,
"Y","APCE","CESPID","Sponsor-Defined Identifier",140,"C",40,,"text",,,"Perm","Assigned","Identifier",,,"UPPERCASE","Sponsor-defined identifier. Example: pre-printed line identifier on a Concomitant Medications page.","Sponsor-defined identifier. Example: pre-printed line identifier on a Concomitant Medications page.",,"__SPID","*",,"Y",,,,,,,,
,"APCE","CELNKID","Link ID",150,"C",40,,"text",,,"Perm","Assigned","Identifier",,,"UPPERCASE",,"Identifier used to link related records across domains. This may be a one-to- one or a one-to-many relationship. For Example: A single tumor may have multiple measurements/assessments performed at each study visit.","IDENTIFIERS","__LNKID","Y",,"Y",,,,,,,,
,"APCE","CELNKGRP","Link Group ID",160,"C",40,,"text",,,"Perm","Assigned","Identifier",,,"UPPERCASE",,"Identifier used to link related records across domains. This will usually be a many-to-one relationship. For example: Multiple tumor measurements/assessments will contribute to a single response to therapy determination record.","IDENTIFIERS","__LNKGRP","Y",,"Y",,,,,,,,
,"APCE","CETERM","Reported Term for the Clinical Event",170,"C",200,,"text",,,"Req",,"Topic",,,"UPPERCASE",,"Term for the medical condition or event. Most likely pre-printed on CRF.",,"__TERM","Y",,"Y",,,,,,,,
,"APCE","CEDECOD","Dictionary-Derived Term",180,"C",200,,"text",,,"Perm","Assigned","SynonymQualifier","*",,"MIXEDCASE",,"Controlled terminology for the name of the clinical event. The sponsor is expected to provide the dictionary name and version used to map the terms utilizing the define.xml external codelist attributes",,"__DECOD","Y",,"Y",,,,,,,,
,"APCE","CECAT","Category for Clinical Event",190,"C",60,,"text","CECAT",,"Perm","Assigned","GroupingQualifier","*",,"UPPERCASE",,"Used to define a category of related records.",,"__CAT","Y","src.cat","Y",,,,,,,,
,"APCE","CESCAT","Subcategory for Clinical Event",200,"C",60,,"text",,,"Perm","Assigned","GroupingQualifier","*",,"UPPERCASE",,"A further categorization of the condition or event.",,"__SCAT","Y","src.sub_cat","Y",,,,,,,,
,"APCE","CEPRESP","Clinical Event Pre-Specified",210,"C",2,,"text","NY",,"Perm",,"VariableQualifier","(NY)",,"UPPERCASE",,"Used to indicate whether the Event in CETERM was pre-specified. Value is Y for pre-specified events, null for spontaneously reported events.",,"__PRESP","Y",,"Y",,,,,,,,"Y"
,"APCE","CEOCCUR","Clinical Event Occurrence",220,"C",2,,"text","NY",,"Perm",,"RecordQualifier","(NY)",,"UPPERCASE",,"Used when the occurrence of specific events is solicited to indicate whether or not a clinical event occurred. Values are null for spontaneously reported events.",,"__OCCUR","Y",,"Y",,,,,,,,"Y|N"
,"APCE","CESTAT","Completion Status",230,"C",40,,"text","ND",,"Perm","Derived","RecordQualifier","(ND)","Set to NOT DONE if 'ND', 'NA', 'NK' ,' ' have been reported on CRF","UPPERCASE",,"The status indicates that a question from a pre-specified list was not answered.",,"__STAT","Y",,"Y",,,,,,,,
,"APCE","CEREASND","Reason Clinical Event Not Collected",240,"C",200,,"text",,,"Perm",,"RecordQualifier",,,"UPPERCASE",,"Describes the reason clinical event data was not collected. Used in conjunction with CESTAT when value is NOT DONE.",,"__REASND","Y",,"Y",,,,,,,,
,"APCE","CEBODSYS","Body System or Organ Class",250,"C",200,,"text",,,"Perm","Assigned","RecordQualifier","MedDRA",,"MIXEDCASE",,"Dictionary-derived. Body system or organ class that is involved in an event or measurement from a standard hierarchy (e.g., MedDRA). When using a multi- axial dictionary such as MedDRA, this should contain the SOC used for the sponsor's analyses and summary tables which may not necessarily be the primary SOC.",,"__BODSYS","Y",,"Y",,,,,,,,
,"APCE","CELOC","Location of Event",260,"C",40,,"text","LOC",,"Perm",,"RecordQualifier","(LOC)",,"UPPERCASE",,,,"__LOC","Y",,"Y",,,,,,,,
,"APCE","CELAT","Laterality",270,"C",40,,"text","LAT",,"Perm",,"VariableQualifier","(LAT)",,"UPPERCASE",,"Qualifier for anatomical location further detailing laterality. Examples: RIGHT, LEFT, BILATERAL","EVENTS","__LAT","Y",,"Y",,,,,,,,
,"APCE","CESEV","Severity/Intensity",280,"C",80,,"text",,,"Perm",,"RecordQualifier","*",,"UPPERCASE",,"The severity or intensity of the event. Examples: MILD, MODERATE, SEVERE",,"__SEV","Y",,"Y",,,,,,,,
,"APCE","ETCD","Element Code",290,"C",8,,"text",,,"Req","Assigned","RecordQualifier","*",,"UPPERCASE",,"ETCD (the companion to ELEMENT) is limited to 8 characters and does not have special character restrictions. These values should be short for ease of use in programming, but it is not expected that ETCD will need to serve as a variable name.","NN DEFINED","ETCD",,,,,,,,,30,"sdtme_std_etcd_v$$",
,"APCE","ELEMENT","Description of Element",300,"C",40,,"text",,,"Req","Protocol","RecordQualifier","*",,"UPPERCASE","Set based on the SE domain","The name of the Element.","NN DEFINED","ELEMENT",,,,,,,,,30,"sdtme_std_etcd_v$$",
,"APCE","VISITNUM","Visit Number",310,"N",8,8.1,"float",,,"Perm","Protocol","Timing",,,,"Multiple unscheduled visits or non-visits can exist having the same visit ID but with different dates. This might result in duplicate records for the same visit number but with different dates",,,"VISITNUM",,"src.vis_id","Y",,,,,,,,
,"APCE","VISIT","Visit Name",320,"C",40,,"text",,,"Perm","Protocol","Timing",,,"UPPERCASE",,,,"VISIT",,,,,,,,,40,"sdtme_std_visit_v$$",
,"APCE","VISITDY","Planned Study Day of Visit",330,"N",8,,"integer",,,"Perm","Assigned","Timing",,,,"Based on TV.VISITDY",,,"VISITDY",,,,,,,,,50,"sdtme_std_visitdy_v$$",
,"APCE","EPOCH","Epoch",340,"C",40,,"text","EPOCH",,"Perm","Protocol","Timing","(EPOCH)",,"UPPERCASE","Set based on the SE domain","Epoch associated with the start date/time of the observation, or the date/time of collection if start date/time is not collected. (See Section 3.2.2).","TIMING","EPOCH",,,,,,,,,20,"sdtme_std_epoch_v$$",
,"APCE","CEDTC","Date/Time of Event Collection",350,"C",64,,"datetime",,,"Perm",,"Timing","ISO 8601",,"UPPERCASE DATETIME",,,,"__DTC","Y",,"Y",,,,,,,,
,"APCE","CESTDTC","Start Date/Time of Clinical Event",360,"C",64,,"datetime",,,"Perm",,"Timing","ISO 8601",,"UPPERCASE DATETIME",,,,"__STDTC","Y",,"Y",,,,,,,,
,"APCE","CEENDTC","End Date/Time of Clinical Event",370,"C",64,,"datetime",,,"Perm",,"Timing","ISO 8601",,"UPPERCASE DATETIME",,,,"__ENDTC","Y",,"Y",,,,,,,,
,"APCE","CEDY","Study Day of Event Collection",380,"N",8,,"integer",,,"Perm","Derived","Timing",,"Calculation: = CEDTC - RFSTDTC+1 if CEDTC is on or after RFSTDTC,CEDTC - RFSTDTC if CEDTC precedes RFSTDTC",,,"1. Study day of clinical event collection, measured as integer days. 2. Algorithm for calculations must be relative to the sponsor-defined RFSTDTC variable in Demographics. This formula should be consistent across the submission.",,"__DY",,,,,,,,,10,"sdtme_std_dy_v$$",
,"APCE","CESTDY","Study Day of Start of Observation",390,"N",8,,"integer",,,"Perm","Derived","Timing",,"Calculation: = CESTDTC - RFSTDTC+1 if CESTDTC is on or after RFSTDTC,CESTDTC - RFSTDTC if CESTDTC precedes RFSTDTC",,,,,"__STDY",,,,,,,,,10,"sdtme_std_dy_v$$",
,"APCE","CEENDY","Study Day of End of Observation",400,"N",8,,"integer",,,"Perm","Derived","Timing",,"Calculation: = CEENDTC - RFSTDTC+1 if CEENDTC is on or after RFSTDTC,CEENDTC - RFSTDTC if CEENDTC precedes RFSTDTC",,,,,"__ENDY",,,,,,,,,10,"sdtme_std_dy_v$$",
,"APCE","CEDUR","Duration",410,"C",64,,"text",,,"Perm",,"Timing","ISO 8601",,"UPPERCASE DURATION",,,,"__DUR","Y",,"Y",,,,,,,,
,"APCE","CESTRF","Start Relative to Reference Period",420,"C",20,,"text","STENRF",,"Perm","Derived","Timing","(STENRF)","Classifies the start of the medication relative to reference period as defined by RFSTDTC and RFENDTC in Demographics.","UPPERCASE",,"Describes the start of the clinical event relative to the sponsor-defined reference period. The sponsor-defined reference period is a continuous period of time defined by a discrete starting point and a discrete ending point (represented by RFSTDTC and RFENDTC in Demographics). This variable is proposed for deletion post SDTM V1.4.",,"__STRF","Y",,"Y",,,,,,,,
,"APCE","CEENRF","End Relative to Reference Period",430,"C",20,,"text","STENRF",,"Perm","Derived","Timing","(STENRF)","Classifies the end of the medication relative to reference period as defined by RFSTDTC and RFENDTC in Demographics. If reported as ongoing on the CRF, the value will be set to ONGOING.","UPPERCASE",,"Describes the end of the event relative to the sponsor-defined reference period. The sponsor-defined reference period is a continuous period of time defined by a discrete starting point and a discrete ending point (represented by RFSTDTC and RFENDTC in Demographics). This variable is proposed for deletion post SDTM V1.4.",,"__ENRF","Y",,"Y",,,,,,,,
,"APCE","CESTRTPT","Start Relative to Reference Time Point",440,"C",40,,"text","STENRF",,"Perm",,"Timing","(STENRF)",,"UPPERCASE",,"Identifies the start of the observation as being before or after the reference time point defined by variable CESTTPT.",,"__STRTPT","Y",,"Y",,,,,,,,
,"APCE","CESTTPT","Start Reference Time Point",450,"C",40,,"text",,,"Perm",,"Timing",,,"UPPERCASE",,"Description or date/time in ISO 8601 character format of the sponsor-defined reference point referred to by --STRTPT. Examples: ""2003-12-15"" or ""VISIT 1"".",,"__STTPT","Y",,"Y",,,,,,,,
,"APCE","CEENRTPT","End Relative to Reference Time Point",460,"C",40,,"text","STENRF",,"Perm",,"Timing","(STENRF)",,"UPPERCASE",,"Identifies the end of the event as being before or after the reference time point defined by variable CEENTPT.",,"__ENRTPT","Y",,"Y",,,,,,,,
,"APCE","CEENTPT","End Reference Time Point",470,"C",40,,"text",,,"Perm",,"Timing",,,"UPPERCASE",,"Description or date/time in ISO 8601 character format of the reference point referred to by CEENRTPT. Examples: ""2003-12-25"" or ""VISIT 2"".",,"__ENTPT","Y",,"Y",,,,,,,,
,"APCM","SRC_ATC_CODE","SRC ATC Code",10,"C",200,,"text",,,"Perm",,"RecordQualifier",,,"UPPERCASE",,,"NN DEFINED","SRC_ATC_CODE",,"src.src_atc_code","Y","Y",,,,,,,
,"APCM","SRC_ATC_TERM","SRC ATC Term",20,"C",200,,"text",,,"Perm",,"RecordQualifier",,,"UPPERCASE",,,"NN DEFINED","SRC_ATC_TERM",,"src.src_atc_term","Y","Y",,,,,,,
,"APCM","TOPIC_CD","CDW Topic Code",30,"C",80,,"text",,,"Perm",,"Topic",,,,,,"NN DEFINED","TOPIC_CD",,"src.topic_cd","Y","Y",,,,,,,
"Y","APCM","STUDYID","Study Identifier",40,"C",40,,"text",,,"Req","Protocol","Identifier",,,"UPPERCASE",,"Unique identifier for a study.",,"STUDYID","*",,"Y",,,,,,,,
"Y","APCM","DOMAIN","Domain Abbreviation",50,"C",8,,"text",,,"Req","Assigned","Identifier",,,"UPPERCASE",,"Four-character abbreviation for the domain, AP--.",,"DOMAIN","*",,"Y",,,,,,30,"sdtme_std_cd_v$$",
"Y","APCM","APID","Associated Persons Identifier",60,"C",60,,"text",,,"Req",,"Identifier",,,"UPPERCASE",,"Identifier for a single associated person, a group of associated persons, or a pool of associated persons. If APID identifies a pool, POOLDEF records must exist for each associated person.",,"APID","Y",,"Y",,,,,,,,
"Y","APCM","CMSEQ","Sequence Number",70,"N",8,,"integer",,,"Req","Assigned","Identifier",,,,,"Sequence number to ensure uniqueness of records within a domain for associated persons. Unique within APID within the domain.",,"__SEQ","*",,"Y",,,,,,,,
"Y","APCM","RSUBJID","Related Subject",80,"C",60,,"text",,,"Exp",,"Identifier",,,"UPPERCASE",,"Identifier for a related study subject or pool of study subjects. The subject(s) may be human or animal. RSUBJID will be populated with the USUBJID of the related subject or the POOLID of the related pool. RSUBJID will be null for data about associated persons who are related to the study but not to any of the study subjects.",,"RSUBJID","Y",,"Y",,,,,,,,
,"APCM","APCMSPID","Sponsor-Defined Identifier",90,"C",40,,"text",,,"Perm","Assigned","Identifier",,,"UPPERCASE","System generated unique identifier, required for Enriched SDTM generation.",,"IDENTIFIERS","__SPID","*",,"Y","Y",,,,,,,
"Y","APCM","RDEVID","Related Device",100,"C",40,,"text",,,"Perm",,"RecordQualifier",,,"UPPERCASE",,"Identifier for a related device. RDEVID will be populated with the SPDEVID of the related device.",,"RDEVID","Y",,"Y",,,,,,,,
"Y","APCM","SREL","Subject, Device, or Study Relationship",110,"C",40,,"text","RELSUB",,"Req",,"RecordQualifier","(RELSUB)",,"UPPERCASE",,"If RSUBJID is populated, describes the relationship of the associated person(s) identified in APID to the subject or pool identified in RSUBJID. If RDEVID is populated, describes the relationship of the associated person(s) identified in APID to the device identified in RDEVID. If RSUBJID and RDEVID are null, SREL describes the relationship of the associated person(s) identified in APID to the study identified in STUDYID.",,"SREL","Y",,"Y",,,,,,,,
,"APCM","USUBJID","Unique Subject Identifier",120,"C",60,,"text",,,"Req","Assigned","Identifier",,,"UPPERCASE","Concatenation of STUDYID and DM.SUBJID (This is a variable for internal system use)","Identifier used to uniquely identify a subject across all studies for all applications or submissions involving the product.","NN DEFINED","USUBJID","*",,"Y","Y",,,,,,,
,"APCM","CMGRPID","Group ID",130,"C",60,,"text",,,"Perm","Assigned","Identifier",,,"UPPERCASE",,"Used to tie together a block of related records in a single domain for a subject.",,"__GRPID","Y",,"Y",,,,,,,,
,"APCM","CMREFID","Reference ID",140,"C",40,,"text",,,"Perm","CRF","Identifier",,,"UPPERCASE",,"Optional internal or external identifier such as lab specimen ID, or UUID for an ECG waveform or a medical image.","IDENTIFIERS","__REFID","Y",,"Y",,,,,,,,
"Y","APCM","CMSPID","Sponsor-Defined Identifier",150,"C",40,,"text",,,"Perm","Assigned","Identifier",,,"UPPERCASE","Sponsor-defined identifier. Example: pre-printed line identifier on a Concomitant Medications page.","Sponsor-defined identifier. Example: pre-printed line identifier on a Concomitant Medications page.",,"__SPID","*",,"Y",,,,,,,,
,"APCM","CMLNKID","Link ID",160,"C",40,,"text",,,"Perm",,"Identifier",,,"UPPERCASE",,"Identifier used to link related records across domains. This may be a one-to- one or a one-to-many relationship. For Example: A single tumor may have multiple measurements/assessments performed at each study visit.","IDENTIFIERS","__LNKID","Y",,"Y",,,,,,,,
,"APCM","CMLNKGRP","Link Group ID",170,"C",40,,"text",,,"Perm","Assigned","Identifier",,,"UPPERCASE",,"Identifier used to link related records across domains. This will usually be a many-to-one relationship. For example: Multiple tumor measurements/assessments will contribute to a single response to therapy determination record.","IDENTIFIERS","__LNKGRP","Y",,"Y",,,,,,,,
,"APCM","CMTRT","Reported Name of Drug, Med, or Therapy",180,"C",200,,"text",,,"Req",,"Topic",,,"UPPERCASE",,"Verbatim medication name that is either pre-printed or collected on a CRF.",,"__TRT","Y",,"Y",,,,,,,,
,"APCM","CMMODIFY","Modified Reported Name",190,"C",200,,"text",,,"Perm",,"SynonymQualifier",,,"UPPERCASE",,"If CMTRT is modified to facilitate coding, then CMMODIFY will contain the modified text.",,"__MODIFY","Y",,"Y",,,,,,,,
,"APCM","CMDECOD","Standardized Medication Name",200,"C",200,,"text",,,"Perm","Assigned","SynonymQualifier","WHODRUG",,"MIXEDCASE",,"Standardized or dictionary-derived text description of CMTRT or CMMODIFY. Equivalent to the generic medication name in WHO Drug. The sponsor is expected to provide the dictionary name and version used to map the terms utilizing the define.xml external codelist attributes. If an intervention term does not have a decode value in the dictionary then CMDECOD will be left blank.",,"__DECOD","Y",,"Y",,,,,,,,
,"APCM","CMCAT","Category for Medication",210,"C",60,,"text","CMCAT",,"Perm","Assigned","GroupingQualifier","*",,"UPPERCASE",,"Used to define a category of medications/treatments. Examples: PRIOR, CONCOMITANT, ANTI-CANCER MEDICATION, or GENERAL CONMED.",,"__CAT","Y","src.cat","Y",,,,,,,,
,"APCM","CMSCAT","Subcategory for Medication",220,"C",60,,"text",,,"Perm","Assigned","GroupingQualifier","*",,"UPPERCASE",,"A further categorization of medications/ treatment. Examples: CHEMOTHERAPY, HORMONAL THERAPY, ALTERNATIVE THERAPY.",,"__SCAT","Y","src.sub_cat","Y",,,,,,,,
,"APCM","CMPRESP","CM Pre-Specified",230,"C",2,,"text","NY",,"Perm",,"VariableQualifier","(NY)",,"UPPERCASE",,"Used to indicate whether (Y/null) information about the use of a specific medication was solicited on the CRF.",,"__PRESP","Y",,"Y",,,,,,,,"Y"
,"APCM","CMOCCUR","CM Occurrence",240,"C",2,,"text","NY",,"Perm",,"RecordQualifier","(NY)",,"UPPERCASE",,"When the use of specific medications is solicited, CMOCCUR is used to indicate whether or not (Y/N) use of the medication occurred. Values are null for medications not specifically solicited.",,"__OCCUR","Y",,"Y",,,,,,,,"Y|N"
,"APCM","CMSTAT","Completion Status",250,"C",40,,"text","ND",,"Perm","Derived","RecordQualifier","(ND)","Set to NOT DONE if 'ND', 'NA', 'NK' ,' ' have been reported on CRF","UPPERCASE",,"Used to indicate that a question about a pre-specified medication was not answered. Should be null or have a value of NOT DONE.",,"__STAT","Y",,"Y",,,,,,,,
,"APCM","CMREASND","Reason Medication Not Collected",260,"C",200,,"text",,,"Perm",,"RecordQualifier",,,"UPPERCASE",,"Describes the reason concomitant medication was not collected. Used in conjunction with CMSTAT when value is NOT DONE.",,"__REASND","Y",,"Y",,,,,,,,
,"APCM","CMINDC","Indication",270,"C",200,,"text",,,"Perm","CRF","RecordQualifier",,,"UPPERCASE",,"Denotes why a medication was taken or administered. Examples: NAUSEA, HYPERTENSION.",,"__INDC","Y",,"Y",,,,,,,,
,"APCM","CMCLAS","Medication Class",280,"C",200,,"text",,,"Perm","Assigned","VariableQualifier","WHODRUG",,"UPPERCASE",,"Drug class. May be obtained from coding. When coding to a single class, populate with class value. If using a dictionary and coding to multiple classes, then follow Section 4: 4.1.2.8.3, Multiple Values For A Non-Result Qualifier Variable or omit CMCLAS.",,"__CLAS","Y",,"Y",,,,,,25,"sdtme_cm_clas_v$$",
,"APCM","CMCLASCD","Medication Class Code",290,"C",40,,"text",,,"Perm","Assigned","VariableQualifier","WHODRUG",,"UPPERCASE",,"Class code corresponding to CMCLAS. Drug class. May be obtained from coding. When coding to a single class, populate with class code. If using a dictionary and coding to multiple classes, then follow Section 4: 4.1.2.8.3, Multiple Values For A Non-Result Qualifier Variable or omit CMCLASCD.",,"__CLASCD","Y",,"Y",,,,,,25,"sdtme_cm_clas_v$$",
,"APCM","CMDOSE","Dose per Administration",300,"N",8,8.3,"float",,,"Perm",,"RecordQualifier",,,,,"Amount of CMTRT taken. Not populated when CMDOSTXT is populated.",,"__DOSE","Y",,"Y",,,,,,,,
,"APCM","CMDOSTXT","Dose Description",310,"C",200,,"text",,,"Perm",,"RecordQualifier",,,"UPPERCASE",,"Dosing amounts or a range of dosing information collected in text form. Units may be stored in CMDOSU. Example: 200-400, 15-20. Not populated when CMDOSE is populated.",,"__DOSTXT","Y",,"Y",,,,,,,,
,"APCM","CMDOSU","Dose Units",320,"C",40,,"text","UNIT",,"Perm",,"VariableQualifier","(UNIT)",,"MIXEDCASE",,"Units for CMDOSE, CMDOSTOT, and CMDOSTXT. Examples: ng, mg, or mg/kg.",,"__DOSU","Y",,"Y",,,,,,60,"sdtme_cm_dosufrq_v$$",
,"APCM","CMDOSFRM","Dose Form",330,"C",80,,"text","FRM",,"Perm",,"VariableQualifier","(FRM)",,"UPPERCASE",,"Dose form for CMTRT. Examples: TABLET, LOTION.",,"__DOSFRM","Y",,"Y",,,,,,,,
,"APCM","CMDOSFRQ","Dosing Frequency per Interval",340,"C",40,,"text","FREQ",,"Perm","CRF","VariableQualifier","(FREQ)",,"UPPERCASE",,"Usually expressed as the number of repeated administrations of CMDOSE within a specific time period. Examples: BID (twice daily), Q12H (every 12 hours).",,"__DOSFRQ","Y",,"Y",,,,,,60,"sdtme_cm_dosufrq_v$$",
,"APCM","CMDOSTOT","Total Daily Dose",350,"N",8,8.3,"float",,,"Perm",,"RecordQualifier",,,,,"Total daily dose of CMTRT using the units in CMDOSU. Used when dosing is collected as Total Daily Dose. Total dose over a period other than day could be recorded in a separate Supplemental Qualifier variable.",,"__DOSTOT","Y",,"Y",,,,,,,,
,"APCM","CMDOSRGM","Intended Dose Regimen",360,"C",40,,"text",,,"Perm",,"VariableQualifier",,,"UPPERCASE",,"Text description of the (intended) schedule or regimen for the Intervention. Examples: TWO WEEKS ON, TWO WEEKS OFF.",,"__DOSRGM","Y",,"Y",,,,,,,,
,"APCM","CMROUTE","Route of Administration",370,"C",40,,"text","ROUTE",,"Perm",,"VariableQualifier","(ROUTE)",,"UPPERCASE",,"Route of administration for CMTRT. Examples: ORAL, INTRAVENOUS.",,"__ROUTE","Y",,"Y",,,,,,,,
,"APCM","ETCD","Element Code",380,"C",8,,"text",,,"Req","Assigned","RecordQualifier","*",,"UPPERCASE","Set based on the SE domain","ETCD (the companion to ELEMENT) is limited to 8 characters and does not have special character restrictions. These values should be short for ease of use in programming, but it is not expected that ETCD will need to serve as a variable name.","NN DEFINED","ETCD",,,,,,,,,50,"sdtme_std_etcd_v$$",
,"APCM","ELEMENT","Description of Element",390,"C",40,,"text",,,"Req","Protocol","RecordQualifier","*",,"UPPERCASE","Set based on the SE domain","The name of the Element.","NN DEFINED","ELEMENT",,,,,,,,,50,"sdtme_std_etcd_v$$",
,"APCM","EPOCH","Epoch",400,"C",40,,"text","EPOCH",,"Perm","Protocol","Timing","(EPOCH)",,"UPPERCASE","Set based on the SE domain","Epoch associated with the start date/time of the observation, or the date/time of collection if start date/time is not collected. (See Section 3.2.2).","TIMING","EPOCH",,,,,,,,,40,"sdtme_std_epoch_v$$",
,"APCM","CMSTDTC","Start Date/Time of Medication",410,"C",64,,"datetime",,,"Perm",,"Timing","ISO 8601",,"UPPERCASE DATETIME",,,,"__STDTC","Y",,"Y",,,,,,,,
,"APCM","CMENDTC","End Date/Time of Medication",420,"C",64,,"datetime",,,"Perm",,"Timing","ISO 8601",,"UPPERCASE DATETIME",,,,"__ENDTC","Y",,"Y",,,,,,,,
,"APCM","CMSTDY","Study Day of Start of Medication",430,"N",8,,"integer",,,"Perm","Derived","Timing",,"Calculation: = CMSTDTC - RFSTDTC+1 if CMSTDTC is on or after RFSTDTC,CMSTDTC - RFSTDTC if CMSTDTC precedes RFSTDTC",,,"Study day of start of medication relative to the sponsor-defined RFSTDTC.",,"__STDY",,,,,,,,,10,"sdtme_std_dy_v$$",
,"APCM","CMENDY","Study Day of End of Medication",440,"N",8,,"integer",,,"Perm","Derived","Timing",,"Calculation: = CMENDTC - RFSTDTC+1 if CMENDTC is on or after RFSTDTC,CMENDTC - RFSTDTC if CMENDTC precedes RFSTDTC",,,"Study day of end of medication relative to the sponsor-defined RFSTDTC.",,"__ENDY",,,,,,,,,10,"sdtme_std_dy_v$$",
,"APCM","CMDUR","Duration of Medication",450,"C",64,,"text",,,"Perm",,"Timing","ISO 8601",,"UPPERCASE DURATION",,"Collected duration for a treatment episode. Used only if collected on the CRF and not derived from start and end date/times.",,"__DUR","Y",,"Y",,,,,,,,
,"APCM","CMTPT","Planned Time Point Name",460,"C",80,,"text",,,"Perm",,"Timing",,,"UPPERCASE",,"Text description of time when a measurement or observation should be taken as defined in the protocol. This may be represented as an elapsed time relative to a fixed reference point, such as time of last dose. See --TPTNUM and -- TPTREF.","TIMING","__TPT","Y",,"Y",,,,,,,,
,"APCM","CMTPTNUM","Planned Time Point Number",470,"N",8,8.1,"float",,,"Perm",,"Timing",,,,,"Numeric version of planned time point used in sorting.","TIMING","__TPTNUM","Y",,"Y",,,,,,,,
,"APCM","CMELTM","Planned Elapsed Time from Time Point Ref",480,"C",64,,"text",,,"Perm",,"Timing","ISO 8601",,"UPPERCASE DURATION",,"Planned Elapsed time in ISO 8601 character format relative to a planned fixed reference (--TPTREF) such as ""Previous Dose"" or ""Previous Meal"". This variable is useful where there are repetitive measures. Not a clock time or a date/time variable, but an interval, represented as ISO duration.","TIMING","__ELTM","Y",,"Y",,,,,,,,
,"APCM","CMTPTREF","Time Point Reference",490,"C",40,,"text",,,"Perm",,"Timing",,,"UPPERCASE",,"Description of the fixed reference point referred to by --ELTM, --TPTNUM, and --TPT. Examples: PREVIOUS DOSE, PREVIOUS MEAL.","TIMING","__TPTREF","Y",,"Y",,,,,,,,
,"APCM","CMRFTDTC","Date/Time of Reference Time Point",500,"C",64,,"datetime",,,"Perm",,"Timing","ISO 8601",,"UPPERCASE DATETIME",,"Date/time for a fixed reference time point defined by --TPTREF in ISO 8601 character format.","TIMING","__RFTDTC","Y",,"Y",,,,,,,,
,"APCM","CMSTRF","Start Relative to Reference Period",510,"C",20,,"text","STENRF",,"Perm","Derived","Timing","(STENRF)","Classifies the start of the medication relative to reference period as defined by RFSTDTC and RFENDTC in Demographics.","UPPERCASE",,"Describes the start of the medication relative to sponsor-defined reference period. The sponsor-defined reference period is a continuous period of time defined by a discrete starting point and a discrete ending point (represented by RFSTDTC and RFENDTC in Demographics). If information such as ""PRIOR"", ONGOING or ""CONTINUING"" was collected, this information may be translated into CMSTRF. This variable is proposed for deletion post SDTM V1.4.",,"__STRF","Y",,"Y",,,,,,,,
,"APCM","CMENRF","End Relative to Reference Period",520,"C",20,,"text","STENRF",,"Perm","Derived","Timing","(STENRF)","Classifies the end of the medication relative to reference period as defined by RFSTDTC and RFENDTC in Demographics. If reported as continuing on the CRF, the value will be set to ONGOING.","UPPERCASE",,"Describes the end of the medication relative to the sponsor-defined reference period. The sponsor-defined reference period is a continuous period of time defined by a discrete starting point and a discrete ending point (represented by RFSTDTC and RFENDTC in Demographics). If information such as ""PRIOR"", ""ONGOING"", or ""CONTINUING"" was collected, this information may be translated into CMENRF. This variable is proposed for deletion post SDTM V1.4.",,"__ENRF","Y",,"Y",,,,,,,,
,"APCM","CMSTRTPT","Start Relative to Reference Time Point",530,"C",40,,"text","STENRF",,"Perm","Assigned","Timing","(STENRF)",,"UPPERCASE",,"Identifies the start of the medication as being before or after the reference time point defined by variable CMSTTPT.",,"__STRTPT","Y",,"Y",,,,,,,,
,"APCM","CMSTTPT","Start Reference Time Point",540,"C",40,,"text",,,"Perm","Assigned","Timing",,,"UPPERCASE",,"Description or date/time in ISO 8601 character format of the reference point referred to by CMSTRTPT. Examples: ""2003-12-15"" or ""VISIT 1"".",,"__STTPT","Y",,"Y",,,,,,,,
,"APCM","CMENRTPT","End Relative to Reference Time Point",550,"C",40,,"text","STENRF",,"Perm","Assigned","Timing","(STENRF)",,"UPPERCASE",,"Identifies the end of the medication as being before or after the reference time point defined by variable CMENTPT.",,"__ENRTPT","Y",,"Y",,,,,,,,
,"APCM","CMENTPT","End Reference Time Point",560,"C",40,,"text",,,"Perm","Assigned","Timing",,,"UPPERCASE",,"Description or date/time in ISO 8601 character format of the reference point referred to by CMENRTPT. Examples: ""2003-12-25"" or ""VISIT 2"".",,"__ENTPT","Y",,"Y",,,,,,,,
,"APDD","TOPIC_CD","CDW Topic Code",10,"C",80,,"text",,,"Perm",,"Topic",,,,,,"NN DEFINED","TOPIC_CD",,"src.topic_cd","Y","Y",,,,,,,
"Y","APDD","STUDYID","Study Identifier",20,"C",40,,"text",,,"Req","Protocol","Identifier",,,"UPPERCASE",,"Unique identifier for a study.",,"STUDYID","*",,"Y",,,,,,,,
"Y","APDD","DOMAIN","Domain Abbreviation",30,"C",8,,"text",,,"Req","Assigned","Identifier",,,"UPPERCASE",,"Four-character abbreviation for the domain, AP--.",,"DOMAIN","*",,"Y",,,,,,,,
"Y","APDD","APID","Associated Persons Identifier",40,"C",60,,"text",,,"Req",,"Identifier",,,"UPPERCASE",,"Identifier for a single associated person, a group of associated persons, or a pool of associated persons. If APID identifies a pool, POOLDEF records must exist for each associated person.",,"APID","Y",,"Y",,,,,,,,
"Y","APDD","DDSEQ","Sequence Number",50,"N",8,,"integer",,,"Req","Assigned","Identifier",,,,,"Sequence number to ensure uniqueness of records within a domain for associated persons. Unique within APID within the domain.",,"__SEQ","*",,"Y",,,,,,,,
"Y","APDD","RSUBJID","Related Subject",60,"C",60,,"text",,,"Exp",,"Identifier",,,"UPPERCASE",,"Identifier for a related study subject or pool of study subjects. The subject(s) may be human or animal. RSUBJID will be populated with the USUBJID of the related subject or the POOLID of the related pool. RSUBJID will be null for data about associated persons who are related to the study but not to any of the study subjects.",,"RSUBJID","Y",,"Y",,,,,,,,
,"APDD","APDDSPID","Sponsor-Defined Identifier",70,"C",40,,"text",,,"Perm","Assigned","Identifier",,,"UPPERCASE","System generated unique identifier, required for Enriched SDTM generation.",,"IDENTIFIERS","__SPID","*",,"Y","Y",,,,,,,
"Y","APDD","RDEVID","Related Device",80,"C",40,,"text",,,"Perm",,"RecordQualifier",,,"UPPERCASE",,"Identifier for a related device. RDEVID will be populated with the SPDEVID of the related device.",,"RDEVID","Y",,"Y",,,,,,,,
"Y","APDD","SREL","Subject, Device, or Study Relationship",90,"C",40,,"text","RELSUB",,"Req",,"RecordQualifier","(RELSUB)",,"UPPERCASE",,"If RSUBJID is populated, describes the relationship of the associated person(s) identified in APID to the subject or pool identified in RSUBJID. If RDEVID is populated, describes the relationship of the associated person(s) identified in APID to the device identified in RDEVID. If RSUBJID and RDEVID are null, SREL describes the relationship of the associated person(s) identified in APID to the study identified in STUDYID.",,"SREL","Y",,"Y",,,,,,,,
,"APDD","USUBJID","Unique Subject Identifier",100,"C",60,,"text",,,"Req","Assigned","Identifier",,,"UPPERCASE","Concatenation of STUDYID and DM.SUBJID (This is a variable for internal system use)","Identifier used to uniquely identify a subject across all studies for all applications or submissions involving the product.","NN DEFINED","USUBJID","*",,"Y","Y",,,,,,,
"Y","APDD","DDSPID","Sponsor-Defined Identifier",110,"C",40,,"text",,,"Perm","Assigned","Identifier",,,"UPPERCASE","Sponsor-defined identifier. Example: pre-printed line identifier on a Concomitant Medications page.","Sponsor-defined identifier. Example: pre-printed line identifier on a Concomitant Medications page.",,"__SPID","*",,"Y",,,,,,,,
,"APDD","DDLNKID","Link ID",120,"C",40,,"text",,,"Perm",,"Identifier",,,"UPPERCASE",,"Identifier used to link related records across domains. This may be a one-to- one or a one-to-many relationship. For Example: A single tumor may have multiple measurements/assessments performed at each study visit.","IDENTIFIERS","__LNKID","Y",,"Y",,,,,,,,
,"APDD","DDLNKGRP","Link Group ID",130,"C",40,,"text",,,"Perm","Assigned","Identifier",,,"UPPERCASE",,"Identifier used to link related records across domains. This will usually be a many-to-one relationship. For example: Multiple tumor measurements/assessments will contribute to a single response to therapy determination record.","IDENTIFIERS","__LNKGRP","Y",,"Y",,,,,,,,
,"APDD","DDTESTCD","Death Detail Assessment Short Name",140,"C",8,,"text",,,"Req",,"Topic","*",,"UPPERCASE",,"Short name of the measurement, test, or examination described in DDTEST. It can be used as a column name when converting a dataset from a vertical to a horizontal format. The value in DDTESTCD cannot be longer than 8 characters, nor can it start with a number (e.g., ""1TEST"" is not valid). DDTESTCD cannot contain characters other than letters, numbers, or underscores. Examples: DIAGPRIM, DIAGSEC, DTHWIT",,"__TESTCD","Y",,"Y",,,,,,,,
,"APDD","DDTEST","Death Detail Assessment Name",150,"C",40,,"text",,,"Req",,"SynonymQualifier","*",,"MIXEDCASE",,"Long name for DDTESTCD. The value in DDTEST cannot be longer than 40 characters. Examples: Primary Diagnosis, Secondary Diagnosis, Was Death Witnessed?",,"__TEST","Y",,"Y",,,,,,,,
,"APDD","DDORRES","Result or Finding as Collected",160,"C",200,,"text",,,"Exp",,"ResultQualifier",,,"UPPERCASE",,"Result of the test defined in DDTEST, as originally received or collected.",,"__ORRES","Y",,"Y",,,,,,,,
,"APDD","DDSTRESC","Character Result/Finding in Std Format",170,"C",200,,"text",,,"Exp",,"ResultQualifier",,,"UPPERCASE",,"Contains the result or finding copied or derived from DDORRES in a standard format.",,"__STRESC","Y",,"Y",,,,,,20,"sdtme_std_stres_v$$",
,"APDD","DDRESCAT","Result Category",180,"C",60,,"text",,,"Perm",,"VariableQualifier","*",,"UPPERCASE",,"Used to categorize the result of a finding. Examples: TREATMENT RELATED, NONTREATMENT RELATED, UNDETERMINED, ACCIDENTAL",,"__RESCAT",,,,,,,,,,,
,"APDD","DDEVAL","Evaluator",190,"C",40,,"text","EVAL",,"Perm",,"RecordQualifier","(EVAL)",,"UPPERCASE",,"Role of the person who provided the evaluation.",,"__EVAL","Y",,"Y",,,,,,,,
,"APDD","DDEVALID","Evaluator Identifier",200,"C",40,,"text","MEDEVAL",,"Perm",,"VariableQualifier","(MEDEVAL)",,"UPPERCASE",,"Used to distinguish multiple evaluators with the same role recorded in --EVAL. Examples: RADIOLOGIST1 or RADIOLOGIST2","FINDINGS","__EVALID","Y",,"Y",,,,,,,,
,"APDD","ETCD","Element Code",210,"C",8,,"text",,,"Req","Assigned","RecordQualifier","*",,"UPPERCASE",,"ETCD (the companion to ELEMENT) is limited to 8 characters and does not have special character restrictions. These values should be short for ease of use in programming, but it is not expected that ETCD will need to serve as a variable name.","NN DEFINED","ETCD",,,,,,,,,40,"sdtme_std_etcd_v$$",
,"APDD","ELEMENT","Description of Element",220,"C",40,,"text",,,"Req","Protocol","RecordQualifier","*",,"UPPERCASE","Set based on the SE domain","The name of the Element.","NN DEFINED","ELEMENT",,,,,,,,,40,"sdtme_std_etcd_v$$",
,"APDD","EPOCH","Epoch",230,"C",40,,"text","EPOCH",,"Perm","Protocol","Timing","(EPOCH)",,"UPPERCASE","Set based on the SE domain","Epoch associated with the start date/time of the observation, or the date/time of collection if start date/time is not collected. (See Section 3.2.2).","TIMING","EPOCH",,,,,,,,,30,"sdtme_std_epoch_v$$",
,"APDD","DDDTC","Date/Time of Collection",240,"C",64,,"datetime",,,"Exp",,"Timing","ISO 8601",,"UPPERCASE DATETIME",,"Date/time of collection of the diagnosis or other death assessment data in ISO 8601 format. This is not necessarily the date of death.",,"__DTC","Y",,"Y",,,,,,,,
,"APDD","DDDY","Study Day of Collection",250,"N",8,,"integer",,,"Perm","Derived","Timing",,"Calculation: = DDDTC - RFSTDTC+1 if DDDTC is on or after RFSTDTC,DDDTC - RFSTDTC if DDDTC precedes RFSTDTC",,,"Study day of the collection, in integer days. The algorithm for calculations must be relative to the sponsor-defined RFSTDTC variable in the Demographics (DM) domain.",,"__DY",,,,,,,,,10,"sdtme_std_dy_v$$",
"Y","APDM","STUDYID","Study Identifier",10,"C",40,,"text",,,"Req","Protocol","Identifier",,,"UPPERCASE",,"Unique identifier for a study.",,"STUDYID","*",,"Y",,,,,,,,
"Y","APDM","DOMAIN","Domain Abbreviation",20,"C",8,,"text",,,"Req","Assigned","Identifier",,,"UPPERCASE",,"Four-character abbreviation for the domain, AP--.",,"DOMAIN","*",,"Y",,,,,,,,
"Y","APDM","APID","Associated Persons Identifier",30,"C",60,,"text",,,"Req",,"Identifier",,,"UPPERCASE",,"Identifier for a single associated person, a group of associated persons, or a pool of associated persons. If APID identifies a pool, POOLDEF records must exist for each associated person.",,"APID","Y",,"Y",,,,,,,,
"Y","APDM","DMSEQ","Sequence Number",40,"N",8,,"integer",,,"Req","Assigned","Identifier",,,,,"Sequence number to ensure uniqueness of records within a domain for associated persons. Unique within APID within the domain.",,"__SEQ","*",,"Y",,,,,,,,
"Y","APDM","RSUBJID","Related Subject",50,"C",60,,"text",,,"Exp",,"Identifier",,,"UPPERCASE",,"Identifier for a related study subject or pool of study subjects. The subject(s) may be human or animal. RSUBJID will be populated with the USUBJID of the related subject or the POOLID of the related pool. RSUBJID will be null for data about associated persons who are related to the study but not to any of the study subjects.",,"RSUBJID","Y",,"Y",,,,,,,,
,"APDM","APDMSPID","Sponsor-Defined Identifier",60,"C",40,,"text",,,"Perm","Assigned","Identifier",,,"UPPERCASE","System generated unique identifier, required for Enriched SDTM generation.",,"IDENTIFIERS","__SPID","*",,"Y","Y",,,,,,,
"Y","APDM","RDEVID","Related Device",70,"C",40,,"text",,,"Perm",,"RecordQualifier",,,"UPPERCASE",,"Identifier for a related device. RDEVID will be populated with the SPDEVID of the related device.",,"RDEVID","Y",,"Y",,,,,,,,
"Y","APDM","SREL","Subject, Device, or Study Relationship",80,"C",40,,"text","RELSUB",,"Req",,"RecordQualifier","(RELSUB)",,"UPPERCASE",,"If RSUBJID is populated, describes the relationship of the associated person(s) identified in APID to the subject or pool identified in RSUBJID. If RDEVID is populated, describes the relationship of the associated person(s) identified in APID to the device identified in RDEVID. If RSUBJID and RDEVID are null, SREL describes the relationship of the associated person(s) identified in APID to the study identified in STUDYID.",,"SREL","Y",,"Y",,,,,,,,
,"APDM","USUBJID","Unique Subject Identifier",90,"C",60,,"text",,,"Req","Assigned","Identifier",,,"UPPERCASE","Concatenation of STUDYID and DM.SUBJID (This is a variable for internal system use)","Identifier used to uniquely identify a subject across all studies for all applications or submissions involving the product.","NN DEFINED","USUBJID","*",,"Y","Y",,,,,,,
"Y","APDM","DMSPID","Sponsor-Defined Identifier",100,"C",40,,"text",,,"Perm","Assigned","Identifier",,,"UPPERCASE","Sponsor-defined identifier. Example: pre-printed line identifier on a Concomitant Medications page.","Sponsor-defined identifier. Example: pre-printed line identifier on a Concomitant Medications page.",,"__SPID","*",,"Y",,,,,,,,
,"APDM","DTHDTC","Date/Time of Death",110,"C",64,,"datetime",,,"Exp","CRF","RecordQualifier","ISO 8601","When DTHDTC is missing: if DD record exists with non-missing DDDTC then DTHDTC=DDDTC or AE record exists with AESDTH=Y then DTHDTC=AEENDTC","UPPERCASE DATETIME",,"Date/time of death for any subject who died, in ISO 8601 format. Should represent the date/time that is captured in the clinical-trial database.","DM","DTHDTC","Y",,"Y",,,,,,40,"sdtme_dm_dth_v$$",
,"APDM","DTHFL","Subject Death Flag",120,"C",2,,"text","NY",,"Exp","Derived","RecordQualifier","(NY)","If DTHDTC is not missing or APDD record exists or APAE record exists with AESDTH=Y then DTHFL=Y","UPPERCASE",,"Indicates the subject died. Should be Y or null. Should be populated even when the death date is unknown.","DM","DTHFL",,,,,,,,,40,"sdtme_dm_dth_v$$","Y"
,"APDM","SITEID","Study Site Identifier",130,"C",40,,"text",,,"Req","Assigned","RecordQualifier",,,"UPPERCASE",,"Unique identifier for a site within a study.","DM","SITEID",,,,,,,,,,,
,"APDM","INVID","Investigator Identifier",140,"C",40,,"text",,,"Perm","Assigned","RecordQualifier",,,"UPPERCASE",,"An identifier to describe the Investigator for the study. May be used in addition to SITEID. Not needed if SITEID is equivalent to INVID.","DM","INVID",,,,,,,,,,,
,"APDM","INVNAM","Investigator Name",150,"C",40,,"text",,,"Perm","Assigned","SynonymQualifier",,,"UPPERCASE",,"Name of the investigator for a site.","DM","INVNAM",,,,,,,,,,,
,"APDM","BRTHDTC","Date/Time of Birth",160,"C",64,,"datetime",,,"Perm","CRF","RecordQualifier","ISO 8601",,"UPPERCASE DATETIME",,"Date/time of birth of the subject.","DM","BRTHDTC","Y",,"Y",,,,,,,,
,"APDM","AGE","Age",170,"N",8,8.1,"float",,,"Exp","Derived","RecordQualifier",,"!!!",,"Age at start of trial","Age expressed in AGEU. May be derived from RFSTDTC and BRTHDTC, but BRTHDTC may not be available in all cases (due to subject privacy concerns).","DM","AGE",,,,,,,,,30,"#age_at_baseline_rl",
,"APDM","AGEU","Age Units",180,"C",10,,"text","AGEU",,"Exp","Assigned","VariableQualifier","(AGEU)",,"UPPERCASE",,"Units associated with AGE.","DM","AGEU",,,,,,,,,30,"#age_at_baseline_rl",
,"APDM","SEX","Sex",190,"C",2,,"text","SEX",,"Req","Assigned","RecordQualifier","(SEX)",,"UPPERCASE",,"Sex of the subject.","DM","SEX","Y",,"Y",,,,,,,,
,"APDM","RACE","Race",200,"C",80,,"text","RACE",,"Exp",,"RecordQualifier","(RACE)",,"UPPERCASE",,"Race of the subject. Sponsors should refer to ""Collection of Race and Ethnicity Data in Clinical Trials"" (FDA, September 2005) for guidance regarding the collection of race (http://www.fda.gov/RegulatoryInformation/Guidances/ucm126340.htm) See Assumption below regarding RACE.","DM","RACE","Y",,"Y",,,,,,,,
,"APDM","ETHNIC","Ethnicity",210,"C",40,,"text","ETHNIC",,"Perm","CRF","RecordQualifier","(ETHNIC)",,"UPPERCASE",,"The ethnicity of the subject. Sponsors should refer to ""Collection of Race and Ethnicity Data in Clinical Trials"" (FDA, September 2005) for guidance regarding the collection of ethnicity (http://www.fda.gov/RegulatoryInformation/Guidances/ucm126340.htm).","DM","ETHNIC","Y",,"Y",,,,,,,,
,"APDM","COUNTRY","Country",220,"C",3,,"text","COUNTRY",,"Req","Assigned","RecordQualifier","(COUNTRY) ISO 3166",,"UPPERCASE",,"Country of the investigational site in which the subject participated in the trial.","DM","COUNTRY",,,,,,,,,,,
,"APFACE","CDMS_SUB_EVT_NUM","CDMS Repeat Sequence Number",10,"N",8,,"integer",,,"Perm",,"RecordQualifier",,,,,,"NN DEFINED","CDMS_SUB_EVT_NUM",,"src.cdms_sub_evt_num","Y","Y",,,,,,,
,"APFACE","SRC_FIND_COLL_UNIT","CDW SRC Finding Collection Unit",20,"C",80,,"text",,,"Perm",,"RecordQualifier",,,,,,"NN DEFINED","SRC_FIND_COLL_UNIT",,"src.find_coll_unit","Y","Y",,,,,,,
,"APFACE","SRC_TOPIC_CD","CDW SRC Topic Code",30,"C",200,,"text",,,"Perm",,"Topic",,,,,,"NN DEFINED","SRC_TOPIC_CD",,"src.src_topic_cd","Y","Y",,,,,,,
,"APFACE","TOPIC_CD","CDW Topic Code",40,"C",80,,"text",,,"Perm",,"Topic",,,,,,"NN DEFINED","TOPIC_CD",,"src.topic_cd","Y","Y",,,,,,,
"Y","APFACE","STUDYID","Study Identifier",50,"C",40,,"text",,,"Req","Protocol","Identifier",,,"UPPERCASE",,"Unique identifier for a study.",,"STUDYID","*",,"Y",,,,,,,,
"Y","APFACE","DOMAIN","Domain Abbreviation",60,"C",8,,"text",,,"Req","Assigned","Identifier",,,"UPPERCASE",,"Four-character abbreviation for the domain, AP--.",,"DOMAIN","*",,"Y",,,,,,,,
"Y","APFACE","APID","Associated Persons Identifier",70,"C",60,,"text",,,"Req",,"Identifier",,,"UPPERCASE",,"Identifier for a single associated person, a group of associated persons, or a pool of associated persons. If APID identifies a pool, POOLDEF records must exist for each associated person.",,"APID","Y",,"Y",,,,,,,,
"Y","APFACE","FASEQ","Sequence Number",80,"N",8,,"integer",,,"Req","Assigned","Identifier",,,,,"Sequence number to ensure uniqueness of records within a domain for associated persons. Unique within APID within the domain.",,"__SEQ","*",,"Y",,,,,,,,
"Y","APFACE","RSUBJID","Related Subject",90,"C",60,,"text",,,"Exp",,"Identifier",,,"UPPERCASE",,"Identifier for a related study subject or pool of study subjects. The subject(s) may be human or animal. RSUBJID will be populated with the USUBJID of the related subject or the POOLID of the related pool. RSUBJID will be null for data about associated persons who are related to the study but not to any of the study subjects.",,"RSUBJID","Y",,"Y",,,,,,,,
,"APFACE","APFACESPID","Sponsor-Defined Identifier",100,"C",40,,"text",,,"Perm","Assigned","Identifier",,,"UPPERCASE","System generated unique identifier, required for Enriched SDTM generation.",,"IDENTIFIERS","__SPID","*",,"Y","Y",,,,,,,
"Y","APFACE","RDEVID","Related Device",110,"C",40,,"text",,,"Perm",,"RecordQualifier",,,"UPPERCASE",,"Identifier for a related device. RDEVID will be populated with the SPDEVID of the related device.",,"RDEVID","Y",,"Y",,,,,,,,
"Y","APFACE","SREL","Subject, Device, or Study Relationship",120,"C",40,,"text","RELSUB",,"Req",,"RecordQualifier","(RELSUB)",,"UPPERCASE",,"If RSUBJID is populated, describes the relationship of the associated person(s) identified in APID to the subject or pool identified in RSUBJID. If RDEVID is populated, describes the relationship of the associated person(s) identified in APID to the device identified in RDEVID. If RSUBJID and RDEVID are null, SREL describes the relationship of the associated person(s) identified in APID to the study identified in STUDYID.",,"SREL","Y",,"Y",,,,,,,,
,"APFACE","USUBJID","Unique Subject Identifier",130,"C",60,,"text",,,"Req","Assigned","Identifier",,,"UPPERCASE","Concatenation of STUDYID and DM.SUBJID (This is a variable for internal system use)","Identifier used to uniquely identify a subject across all studies for all applications or submissions involving the product.","NN DEFINED","USUBJID","*",,"Y","Y",,,,,,,
,"APFACE","FAGRPID","Group ID",140,"C",60,,"text",,,"Perm",,"Identifier",,,"UPPERCASE",,"Used to tie together a block of related records in a single domain for a subject.",,"__GRPID","Y",,"Y",,,,,,,,
,"APFACE","FAREFID","Reference ID",150,"C",40,,"text",,,"Perm","CRF","Identifier",,,"UPPERCASE",,"Optional internal or external identifier such as lab specimen ID, or UUID for an ECG waveform or a medical image.","IDENTIFIERS","__REFID","Y",,"Y",,,,,,,,
"Y","APFACE","FASPID","Sponsor-Defined Identifier",160,"C",40,,"text",,,"Perm","Assigned","Identifier",,,"UPPERCASE","Sponsor-defined identifier. Example: pre-printed line identifier on a Concomitant Medications page.","Sponsor-defined identifier. Example: pre-printed line identifier on a Concomitant Medications page.",,"__SPID","*",,"Y",,,,,,,,
,"APFACE","FALNKID","Link ID",170,"C",40,,"text",,,"Perm","Assigned","Identifier",,,"UPPERCASE",,"Identifier used to link related records across domains. This may be a one-to- one or a one-to-many relationship. For Example: A single tumor may have multiple measurements/assessments performed at each study visit.","IDENTIFIERS","__LNKID","Y",,"Y",,,,,,,,
,"APFACE","FALNKGRP","Link Group ID",180,"C",40,,"text",,,"Perm","Assigned","Identifier",,,"UPPERCASE",,"Identifier used to link related records across domains. This will usually be a many-to-one relationship. For example: Multiple tumor measurements/assessments will contribute to a single response to therapy determination record.","IDENTIFIERS","__LNKGRP","Y",,"Y",,,,,,,,
,"APFACE","FATESTCD","Findings About Test Short Name",190,"C",8,,"text","FATESTCD",,"Req","Assigned","Topic","(FATESTCD)",,"UPPERCASE",,"Short name of the measurement, test, or examination described in FATEST. It can be used as a column name when converting a dataset from a vertical to a horizontal format. The value in FATESTCD cannot be longer than 8 characters, nor can it start with a number (e.g. ""1TEST""). FATESTCD cannot contain characters other than letters, numbers, or underscores. Example: SEV, OCCUR.",,"__TESTCD","Y",,"Y",,,,,,,,
,"APFACE","FATEST","Findings About Test Name",200,"C",40,,"text","FATEST",,"Req","Assigned","SynonymQualifier","(FATEST)",,"MIXEDCASE",,"Verbatim name of the test or examination used to obtain the measurement or finding. The value in FATEST cannot be longer than 40 characters. Examples: Severity/Intensity, Occurrence",,"__TEST","Y",,"Y",,,,,,,,
,"APFACE","FAOBJ","Object of the Observation",210,"C",200,,"text",,,"Req","Assigned","RecordQualifier",,,"UPPERCASE",,"Used to describe the object or focal point of the findings observation that is represented by --TEST. Examples: the term (such as Acne) describing a clinical sign or symptom that is being measured by a Severity test, or an event such as VOMIT where the volume of Vomit is being measured by a VOLUME test.",,"__OBJ","Y",,"Y",,,,,,,,
,"APFACE","FACAT","Category for Findings About",220,"C",60,,"text",,,"Perm","Assigned","GroupingQualifier","*",,"UPPERCASE",,"Used to define a category of related records. Examples: GERD, PRE-SPECIFIED AE.",,"__CAT","Y","src.cat","Y",,,,,,,,
,"APFACE","FASCAT","Subcategory for Findings About",230,"C",60,,"text",,,"Perm","Assigned","GroupingQualifier","*",,"UPPERCASE",,"A further categorization of FACAT.",,"__SCAT","Y","src.sub_cat","Y",,,,,,,,
,"APFACE","FAORRES","Result or Finding in Original Units",240,"C",200,,"text",,,"Exp",,"ResultQualifier",,,"UPPERCASE",,"Result of the test as originally received or collected.",,"__ORRES","Y",,"Y",,"FATESTCD","FATEST",,,,,
,"APFACE","FAORRESU","Original Units",250,"C",40,,"text","UNIT",,"Perm",,"VariableQualifier","(UNIT)",,"MIXEDCASE",,"Original units in which the data were collected. The unit for FAORRES.",,"__ORRESU","Y",,"Y",,"FATESTCD","FATEST","Y",,,,
,"APFACE","FAORNRLO","Normal Range Lower Limit-Original Units",260,"C",40,,"text",,,"Perm","Assigned","VariableQualifier",,,"UPPERCASE",,,,"__ORNRLO",,,,,,,,,50,"sdtme_std_ornr_v$$",
,"APFACE","FAORNRHI","Normal Range Upper Limit-Original Units",270,"C",40,,"text",,,"Perm","Assigned","VariableQualifier",,,"UPPERCASE",,,,"__ORNRHI",,,,,,,,,50,"sdtme_std_ornr_v$$",
,"APFACE","FASTRESC","Character Result/Finding in Std Format",280,"C",200,,"text",,,"Exp","Derived","ResultQualifier",,"FAORRES converted into standard unit","UPPERCASE",,"Contains the result value for all findings, copied or derived from FAORRES in a standard format or standard units. FASTRESC should store all results or findings in character format; if results are numeric, they should also be stored in numeric format in FASTRESN. For example, if a test has results ""NONE"", ""NEG"", and ""NEGATIVE"" in FAORRES and these results effectively have the same meaning; they could be represented in standard format in FASTRESC as ""NEGATIVE"".",,"__STRESC","Y",,"Y",,,,,,70,"sdtme_std_stres_v$$",
,"APFACE","FASTRESN","Numeric Result/Finding in Standard Units",290,"N",8,8.3,"float",,,"Perm","Derived","ResultQualifier",,"FAORRES converted into standard unit",,,"Used for continuous or numeric results or findings in standard format; copied in numeric format from FASTRESC. FASTRESN should store all numeric test results or findings.",,"__STRESN",,,,,,,,,70,"sdtme_std_stres_v$$",
,"APFACE","FASTRESU","Standard Units",300,"C",40,,"text","UNIT",,"Perm","Assigned","VariableQualifier","(UNIT)",,"MIXEDCASE",,"Standardized unit used for FASTRESC and FASTRESN.",,"__STRESU",,,,,,,,,60,"sdtme_std_stresu_v$$",
,"APFACE","FASTNRLO","Normal Range Lower Limit-Standard Units",310,"N",8,8.3,"float",,,"Perm","Derived","VariableQualifier",,"FAORNRLO converted to standard unit (FASTRESU)",,"FAORNRLO converted to standard unit (FASTRESU)",,,"__STNRLO",,,,,,,,,70,"sdtme_std_stres_v$$",
,"APFACE","FASTNRHI","Normal Range Upper Limit-Standard Units",320,"N",8,8.3,"float",,,"Perm","Derived","VariableQualifier",,"FAORNRHI converted to standard unit (FASTRESU)",,"FAORNRHI converted to standard unit (FASTRESU)",,,"__STNRHI",,,,,,,,,70,"sdtme_std_stres_v$$",
,"APFACE","FASTAT","Completion Status",330,"C",40,,"text","ND",,"Perm","Derived","RecordQualifier","(ND)","Set to NOT DONE if 'ND', 'NA', 'NK' ,' ' have been reported on CRF","UPPERCASE",,"Used to indicate that the measurement was not done. Should be null if a result exists in FAORRES.",,"__STAT","Y",,"Y",,,,,,,,
,"APFACE","FAREASND","Reason Not Performed",340,"C",200,,"text",,,"Perm","Derived","RecordQualifier",,"Set to NOT COLLECTED if FASTAT is set to NOT DONE","UPPERCASE",,"Describes why a question was not answered. Example: subject refused. Used in conjunction with FASTAT when value is NOT DONE.",,"__REASND","Y",,"Y",,,,,,,,
,"APFACE","FASPEC","Specimen Material Type",350,"C",80,,"text","SPECTYPE",,"Perm",,"RecordQualifier","(SPECTYPE)",,"UPPERCASE",,"Defines the type of specimen used for a measurement. Examples: SERUM, PLASMA, URINE, DNA, RNA.","FINDINGS","__SPEC","Y",,"Y",,,,,,,,
,"APFACE","FALOC","Location of the Finding About",360,"C",100,,"text","LOC",,"Perm",,"RecordQualifier","(LOC)",,"UPPERCASE",,"Used to specify the location of the clinical evaluation. Example: ARM",,"__LOC","Y",,"Y",,,,,,,,
,"APFACE","FALAT","Laterality of Location of Finding About",370,"C",40,,"text","LAT",,"Perm",,"ResultQualifier","(LAT)",,"UPPERCASE",,"Qualifier for anatomical location or specimen further detailing laterality. Examples: RIGHT, LEFT, BILATERAL",,"__LAT","Y",,"Y",,,,,,,,
,"APFACE","FAMETHOD","Method of Test or Examination",380,"C",80,,"text","METHOD",,"Perm","eDT","RecordQualifier","(METHOD)",,"UPPERCASE",,,,"__METHOD","Y",,"Y",,,,,,,,
,"APFACE","FABLFL","Baseline Flag",390,"C",2,,"text","NY",,"Perm","Derived","RecordQualifier","(NY)","Baseline flag set to Y when the assessment is collected at the visit marked as baseline in the trial flowchart","UPPERCASE",,"Indicator used to identify a baseline value. The value should be ""Y"" or null.",,"__BLFL",,,,,,,,,20,"sdtme_std_blfl_v$$","Y"
,"APFACE","FANAM","Vendor Name",400,"C",40,,"text",,,"Perm",,"RecordQualifier",,,"UPPERCASE",,"Name or identifier of the laboratory or vendor who provided the test results.",,"__NAM","Y",,"Y",,,,,,,,
,"APFACE","FAEVAL","Evaluator",410,"C",40,,"text","EVAL",,"Perm",,"RecordQualifier","(EVAL)",,"UPPERCASE",,"Role of the person who provided the evaluation. Used only for results that are subjective (e.g., assigned by a person or a group). Should be null for records that contain collected or derived data. Examples: INVESTIGATOR, ADJUDICATION COMMITTEE, VENDOR.",,"__EVAL","Y",,"Y",,,,,,,,
,"APFACE","FAEVALID","Evaluator Identifier",420,"C",40,,"text","MEDEVAL",,"Perm",,"VariableQualifier","(MEDEVAL)",,"UPPERCASE",,"Used to distinguish multiple evaluators with the same role recorded in --EVAL. Examples: RADIOLOGIST1 or RADIOLOGIST2","FINDINGS","__EVALID","Y",,"Y",,,,,,,,
,"APFACE","VISITNUM","Visit Number",430,"N",8,8.1,"float",,,"Exp","Protocol","Timing",,,,,"1. Clinical encounter number. 2. Numeric version of VISIT, used for sorting.",,"VISITNUM",,"src.vis_id","Y",,,,,,,,
,"APFACE","VISIT","Visit Name",440,"C",40,,"text",,,"Perm","Protocol","Timing",,,"UPPERCASE",,"1. Protocol-defined description of clinical encounter. 2. May be used in addition to VISITNUM and/or VISITDY.",,"VISIT",,,,,,,,,30,"sdtme_std_visit_v$$",
,"APFACE","VISITDY","Planned Study Day of Visit",450,"N",8,,"integer",,,"Perm","Assigned","Timing",,,,"Based on TV.VISITDY","Planned study day of the visit based upon RFSTDTC in Demographics.",,"VISITDY",,,,,,,,,40,"sdtme_std_visitdy_v$$",
,"APFACE","ETCD","Element Code",460,"C",8,,"text",,,"Req","Assigned","RecordQualifier","*",,"UPPERCASE","Set based on the SE domain","ETCD (the companion to ELEMENT) is limited to 8 characters and does not have special character restrictions. These values should be short for ease of use in programming, but it is not expected that ETCD will need to serve as a variable name.","NN DEFINED","ETCD",,,,,,,,,90,"sdtme_std_etcd_v$$",
,"APFACE","ELEMENT","Description of Element",470,"C",40,,"text",,,"Req","Protocol","RecordQualifier","*",,"UPPERCASE","Set based on the SE domain","The name of the Element.","NN DEFINED","ELEMENT",,,,,,,,,90,"sdtme_std_etcd_v$$",
,"APFACE","EPOCH","Epoch",480,"C",40,,"text","EPOCH",,"Perm","Protocol","Timing","(EPOCH)",,"UPPERCASE","Set based on the SE domain","Epoch associated with the start date/time of the observation, or the date/time of collection if start date/time is not collected. (See Section 3.2.2).","TIMING","EPOCH",,,,,,,,,80,"sdtme_std_epoch_v$$",
,"APFACE","FADTC","Date/Time of Collection",490,"C",64,,"datetime",,,"Perm",,"Timing","ISO 8601",,"UPPERCASE DATETIME",,,,"__DTC","Y",,"Y",,,,,,,,
,"APFACE","FAENDTC","End Date/Time of Observation",500,"C",64,,"datetime",,,"Perm",,"Timing","ISO 8601",,"UPPERCASE DATETIME",,"End date/time of the observation represented in IS0 8601 character format.","TIMING","__ENDTC","Y",,"Y",,,,,,,,
,"APFACE","FADY","Study Day of Collection",510,"N",8,,"integer",,,"Perm","Derived","Timing",,"Calculation: = FADTC - RFSTDTC+1 if FADTC is on or after RFSTDTC,FADTC - RFSTDTC if FADTC precedes RFSTDTC",,,"1. Study day of collection, measured as integer days. 2. Algorithm for calculations must be relative to the sponsor-defined RFSTDTC variable in Demographics. This formula should be consistent across the submission.",,"__DY",,,,,,,,,10,"sdtme_std_dy_v$$",
,"APFACE","FAENDY","Study Day of End of Observation",520,"N",8,,"integer",,,"Perm","Derived","Timing",,"Calculation: = FAENDTC - RFSTDTC+1 if FAENDTC is on or after RFSTDTC,FAENDTC - RFSTDTC if FAENDTC precedes RFSTDTC",,,"Actual study day of end of observation expressed in integer days relative to the sponsor-defined RFSTDTC in Demographics.","TIMING","__ENDY",,,,,,,,,10,"sdtme_std_dy_v$$",
,"APFACE","FATPTNUM","Planned Time Point Number",530,"N",8,8.1,"float",,,"Perm",,"Timing",,,,,,,"__TPTNUM","Y",,"Y",,,,,,,,
,"APFACE","FATPTREF","Time Point Reference",540,"C",40,,"text",,,"Perm",,"Timing",,,"UPPERCASE",,,,"__TPTREF","Y",,"Y",,,,,,,,
,"APFACE","FATPT","Planned Time Point Name",550,"C",80,,"text",,,"Perm",,"Timing",,,"UPPERCASE",,"Text description of time when a measurement or observation should be taken as defined in the protocol. This may be represented as an elapsed time relative to a fixed reference point, such as time of last dose. See --TPTNUM and -- TPTREF.","TIMING","__TPT","Y",,"Y",,,,,,,,
,"APFACE","FAELTM","Planned Elapsed Time from Time Point Ref",560,"C",64,,"text",,,"Perm",,"Timing","ISO 8601",,"UPPERCASE DURATION",,"Planned Elapsed time in ISO 8601 character format relative to a planned fixed reference (--TPTREF) such as ""Previous Dose"" or ""Previous Meal"". This variable is useful where there are repetitive measures. Not a clock time or a date/time variable, but an interval, represented as ISO duration.","TIMING","__ELTM","Y",,"Y",,,,,,,,
,"APFACE","FARFTDTC","Date/Time of Reference Time Point",570,"C",64,,"datetime",,,"Perm",,"Timing","ISO 8601",,"UPPERCASE DATETIME",,"Date/time for a fixed reference time point defined by --TPTREF in ISO 8601 character format.","TIMING","__RFTDTC","Y",,"Y",,,,,,,,
,"APHO","TOPIC_CD","CDW Topic Code",10,"C",80,,"text",,,"Perm",,"Topic",,,,,,"NN DEFINED","TOPIC_CD",,"src.topic_cd","Y","Y",,,,,,,
"Y","APHO","STUDYID","Study Identifier",20,"C",40,,"text",,,"Req","Protocol","Identifier",,,"UPPERCASE",,"Unique identifier for a study.",,"STUDYID","*",,"Y",,,,,,,,
"Y","APHO","DOMAIN","Domain Abbreviation",30,"C",8,,"text",,,"Req","Assigned","Identifier",,,"UPPERCASE",,"Four-character abbreviation for the domain, AP--.",,"DOMAIN","*",,"Y",,,,,,,,
"Y","APHO","APID","Associated Persons Identifier",40,"C",60,,"text",,,"Req",,"Identifier",,,"UPPERCASE",,"Identifier for a single associated person, a group of associated persons, or a pool of associated persons. If APID identifies a pool, POOLDEF records must exist for each associated person.",,"APID","Y",,"Y",,,,,,,,
"Y","APHO","HOSEQ","Sequence Number",50,"N",8,,"integer",,,"Req","Assigned","Identifier",,,,,"Sequence number to ensure uniqueness of records within a domain for associated persons. Unique within APID within the domain.",,"__SEQ","*",,"Y",,,,,,,,
"Y","APHO","RSUBJID","Related Subject",60,"C",60,,"text",,,"Exp",,"Identifier",,,"UPPERCASE",,"Identifier for a related study subject or pool of study subjects. The subject(s) may be human or animal. RSUBJID will be populated with the USUBJID of the related subject or the POOLID of the related pool. RSUBJID will be null for data about associated persons who are related to the study but not to any of the study subjects.",,"RSUBJID","Y",,"Y",,,,,,,,
"Y","APHO","RDEVID","Related Device",70,"C",40,,"text",,,"Perm",,"RecordQualifier",,,"UPPERCASE",,"Identifier for a related device. RDEVID will be populated with the SPDEVID of the related device.",,"RDEVID","Y",,"Y",,,,,,,,
"Y","APHO","SREL","Subject, Device, or Study Relationship",80,"C",40,,"text","RELSUB",,"Req",,"RecordQualifier","(RELSUB)",,"UPPERCASE",,"If RSUBJID is populated, describes the relationship of the associated person(s) identified in APID to the subject or pool identified in RSUBJID. If RDEVID is populated, describes the relationship of the associated person(s) identified in APID to the device identified in RDEVID. If RSUBJID and RDEVID are null, SREL describes the relationship of the associated person(s) identified in APID to the study identified in STUDYID.",,"SREL","Y",,"Y",,,,,,,,
,"APHO","USUBJID","Unique Subject Identifier",90,"C",60,,"text",,,"Req","Assigned","Identifier",,,"UPPERCASE","Concatenation of STUDYID and DM.SUBJID (This is a variable for internal system use)","Identifier used to uniquely identify a subject across all studies for all applications or submissions involving the product.","NN DEFINED","USUBJID","*",,"Y","Y",,,,,,,
,"APHO","APHOSPID","Sponsor-Defined Identifier",100,"C",40,,"text",,,"Perm","Assigned","Identifier",,,"UPPERCASE","System generated unique identifier, required for Enriched SDTM generation.",,"IDENTIFIERS","__SPID","*",,"Y","Y",,,,,,,
,"APHO","HOGRPID","Group ID",110,"C",60,,"text",,,"Perm",,"Identifier",,,"UPPERCASE",,"Used to tie together a block of related records in a single domain for a subject.",,"__GRPID","Y",,"Y",,,,,,,,
,"APHO","HOREFID","Reference ID",120,"C",40,,"text",,,"Perm",,"Identifier",,,"UPPERCASE",,"Internal or external healthcare encounter identifier.",,"__REFID","Y",,"Y",,,,,,,,
"Y","APHO","HOSPID","Sponsor-Defined Identifier",130,"C",40,,"text",,,"Perm","Assigned","Identifier",,,"UPPERCASE","Sponsor-defined identifier. Example: pre-printed line identifier on a Concomitant Medications page.","Sponsor-defined identifier. Example: pre-printed line identifier on a Concomitant Medications page.",,"__SPID","*",,"Y",,,,,,,,
,"APHO","HOLNKID","Link ID",140,"C",40,,"text",,,"Perm",,"Identifier",,,"UPPERCASE",,"Identifier used to link related records across domains. This may be a one-to- one or a one-to-many relationship. For Example: A single tumor may have multiple measurements/assessments performed at each study visit.","IDENTIFIERS","__LNKID","Y",,"Y",,,,,,,,
,"APHO","HOLNKGRP","Link Group ID",150,"C",40,,"text",,,"Perm","Assigned","Identifier",,,"UPPERCASE",,"Identifier used to link related records across domains. This will usually be a many-to-one relationship. For example: Multiple tumor measurements/assessments will contribute to a single response to therapy determination record.","IDENTIFIERS","__LNKGRP","Y",,"Y",,,,,,,,
,"APHO","HOTERM","Reported Term for Healthcare Encounter",160,"C",200,,"text",,,"Req",,"Topic",,,"UPPERCASE",,"Verbatim or preprinted CRF term for the healthcare encounter.",,"__TERM","Y",,"Y",,,,,,,,
,"APHO","HODECOD","Dictionary-Derived Term",170,"C",200,,"text",,,"Perm","Assigned","SynonymQualifier","*",,"MIXEDCASE",,"Dictionary or sponsor-defined derived text description of HOTERM or the modified topic variable (HOMODIFY).",,"__DECOD","Y",,"Y",,,,,,,,
,"APHO","HOCAT","Category for Healthcare Encounter",180,"C",60,,"text","HOCAT",,"Perm","Assigned","GroupingQualifier","*",,"UPPERCASE",,"Used to define a category of topic-related values.",,"__CAT","Y","src.cat","Y",,,,,,,,
,"APHO","HOSCAT","Subcategory for Healthcare Encounter",190,"C",60,,"text",,,"Perm","Assigned","GroupingQualifier","*",,"UPPERCASE",,"A further categorization of HOCAT values.",,"__SCAT","Y","src.sub_cat","Y",,,,,,,,
,"APHO","HOPRESP","Pre-Specified Healthcare Encounter",200,"C",2,,"text","NY",,"Perm",,"RecordQualifier","(NY)",,"UPPERCASE",,"A value of ""Y"" indicates that this healthcare encounter event was pre- specified on the CRF. Values are null for spontaneously reported events (i.e., those collected as free-text verbatim terms)",,"__PRESP","Y",,"Y",,,,,,,,"Y"
,"APHO","HOOCCUR","Healthcare Encounter Occurrence",210,"C",2,,"text","NY",,"Perm",,"RecordQualifier","(NY)",,"UPPERCASE",,"Used when the occurrence of specific healthcare encounters is solicited to indicate whether or not an encounter occurred. Values are null for spontaneously reported events.",,"__OCCUR","Y",,"Y",,,,,,,,"Y|N"
,"APHO","HOSTAT","Completion Status",220,"C",40,,"text","ND",,"Perm","Derived","RecordQualifier","(ND)","Set to NOT DONE if 'ND', 'NA', 'NK' ,' ' have been reported on CRF","UPPERCASE",,"The status indicates that the pre-specified question was not answered.",,"__STAT","Y",,"Y",,,,,,,,
,"APHO","HOREASND","Reason Healthcare Encounter Not Done",230,"C",200,,"text",,,"Perm",,"RecordQualifier",,,"UPPERCASE",,"Describes the reason data for a pre-specified event was not collected. Used in conjunction with HOSTAT when value is NOT DONE.",,"__REASND","Y",,"Y",,,,,,,,
,"APHO","ETCD","Element Code",240,"C",8,,"text",,,"Req","Assigned","RecordQualifier","*",,"UPPERCASE","Set based on the SE domain","ETCD (the companion to ELEMENT) is limited to 8 characters and does not have special character restrictions. These values should be short for ease of use in programming, but it is not expected that ETCD will need to serve as a variable name.","NN DEFINED","ETCD",,,,,,,,,30,"sdtme_std_etcd_v$$",
,"APHO","ELEMENT","Description of Element",250,"C",40,,"text",,,"Req","Protocol","RecordQualifier","*",,"UPPERCASE","Set based on the SE domain","The name of the Element.","NN DEFINED","ELEMENT",,,,,,,,,30,"sdtme_std_etcd_v$$",
,"APHO","EPOCH","Epoch",260,"C",40,,"text","EPOCH",,"Perm","Protocol","Timing","(EPOCH)",,"UPPERCASE","Set based on the SE domain","Epoch associated with the start date/time of the observation, or the date/time of collection if start date/time is not collected. (See Section 3.2.2).","TIMING","EPOCH",,,,,,,,,20,"sdtme_std_epoch_v$$",
,"APHO","HODTC","Date/Time of Event Collection",270,"C",64,,"datetime",,,"Perm",,"Timing","ISO 8601",,"UPPERCASE DATETIME",,"Collection date and time of the healthcare encounter.",,"__DTC","Y",,"Y",,,,,,,,
,"APHO","HOSTDTC","Start Date/Time of Healthcare Encounter",280,"C",64,,"datetime",,,"Exp",,"Timing","ISO 8601",,"UPPERCASE DATETIME",,"Start date/time of the healthcare encounter (e.g., date of admission).",,"__STDTC","Y",,"Y",,,,,,,,
,"APHO","HOENDTC","End Date/Time of Healthcare Encounter",290,"C",64,,"datetime",,,"Perm",,"Timing","ISO 8601",,"UPPERCASE DATETIME",,"End date/time of the healthcare encounter (date of discharge).",,"__ENDTC","Y",,"Y",,,,,,,,
,"APHO","HODY","Study Day of Event Collection",300,"N",8,,"integer",,,"Perm","Derived","Timing",,"Calculation: = HODTC - RFSTDTC+1 if HODTC is on or after RFSTDTC,HODTC - RFSTDTC if HODTC precedes RFSTDTC",,,"Study day of event collection relative to the sponsor-defined RFSTDTC.",,"__DY",,,,,,,,,10,"sdtme_std_dy_v$$",
,"APHO","HOSTDY","Study Day of Start of Observation",310,"N",8,,"integer",,,"Perm","Derived","Timing",,"Calculation: = HOSTDTC - RFSTDTC+1 if HOSTDTC is on or after RFSTDTC,HOSTDTC - RFSTDTC if HOSTDTC precedes RFSTDTC",,,"Study day of the start of the healthcare encounter relative to the sponsor-defined RFSTDTC.",,"__STDY",,,,,,,,,10,"sdtme_std_dy_v$$",
,"APHO","HOENDY","Study Day of End of Healthcare Encounter",320,"N",8,,"integer",,,"Perm","Derived","Timing",,"Calculation: = HOENDTC - RFSTDTC+1 if HOENDTC is on or after RFSTDTC,HOENDTC - RFSTDTC if HOENDTC precedes RFSTDTC",,,"Study day of the end of the healthcare encounter relative to the sponsor-defined RFSTDTC.",,"__ENDY",,,,,,,,,10,"sdtme_std_dy_v$$",
,"APHO","HODUR","Duration of Healthcare Encounter",330,"C",64,,"text",,,"Perm",,"Timing","ISO 8601",,"UPPERCASE DURATION",,"Collected duration of the healthcare encounter. Used only if collected on the CRF and not derived from the start and end date/times. Example: P1DT2H (for 1 day, 2 hours).",,"__DUR","Y",,"Y",,,,,,,,
,"APHO","HOSTRTPT","Start Relative to Reference Time Point",340,"C",40,,"text","STENRF",,"Perm",,"Timing","(STENRF)",,"UPPERCASE",,"Identifies the start of the observation as being before or after the sponsor-defined reference time point defined by variable --STTPT.",,"__STRTPT","Y",,"Y",,,,,,,,
,"APHO","HOSTTPT","Start Reference Time Point",350,"C",40,,"text",,,"Perm",,"Timing",,,"UPPERCASE",,"Description or date/time in ISO 8601 character format of the sponsor- defined reference point referred to by STRTPT. Examples: ""2003-12- 15"" or ""VISIT 1"".",,"__STTPT","Y",,"Y",,,,,,,,
,"APHO","HOENRTPT","End Relative to Reference Time Point",360,"C",40,,"text","STENRF",,"Perm",,"Timing","(STENRF)",,"UPPERCASE",,"Identifies the end of the event as being before or after the reference time point defined by variable HOENTPT.",,"__ENRTPT","Y",,"Y",,,,,,,,
,"APHO","HOENTPT","End Reference Time Point",370,"C",40,,"text",,,"Perm",,"Timing",,,"UPPERCASE",,"Description or date/time in ISO 8601 character format of the reference point referred to by HOENRTPT. Examples: ""2003-12-25"" or ""VISIT 2"".",,"__ENTPT","Y",,"Y",,,,,,,,
,"APMH","CDMS_SUB_EVT_NUM","CDMS Repeat Sequence Number",10,"N",8,,"integer",,,"Perm",,"RecordQualifier",,,,,,"NN DEFINED","CDMS_SUB_EVT_NUM",,"src.cdms_sub_evt_num","Y","Y",,,,,,,
,"APMH","TOPIC_CD","CDW Topic Code",20,"C",80,,"text",,,"Perm",,"Topic",,,,,,"NN DEFINED","TOPIC_CD",,"src.topic_cd","Y","Y",,,,,,,
"Y","APMH","STUDYID","Study Identifier",30,"C",40,,"text",,,"Req","Protocol","Identifier",,,"UPPERCASE",,"Unique identifier for a study.",,"STUDYID","*",,"Y",,,,,,,,
"Y","APMH","DOMAIN","Domain Abbreviation",40,"C",8,,"text",,,"Req","Assigned","Identifier",,,"UPPERCASE",,"Four-character abbreviation for the domain, AP--.",,"DOMAIN","*",,"Y",,,,,,,,
"Y","APMH","APID","Associated Persons Identifier",50,"C",60,,"text",,,"Req",,"Identifier",,,"UPPERCASE",,"Identifier for a single associated person, a group of associated persons, or a pool of associated persons. If APID identifies a pool, POOLDEF records must exist for each associated person.",,"APID","Y",,"Y",,,,,,,,
"Y","APMH","MHSEQ","Sequence Number",60,"N",8,,"integer",,,"Req","Assigned","Identifier",,,,,"Sequence number to ensure uniqueness of records within a domain for associated persons. Unique within APID within the domain.",,"__SEQ","*",,"Y",,,,,,,,
"Y","APMH","RSUBJID","Related Subject",70,"C",60,,"text",,,"Exp",,"Identifier",,,"UPPERCASE",,"Identifier for a related study subject or pool of study subjects. The subject(s) may be human or animal. RSUBJID will be populated with the USUBJID of the related subject or the POOLID of the related pool. RSUBJID will be null for data about associated persons who are related to the study but not to any of the study subjects.",,"RSUBJID","Y",,"Y",,,,,,,,
,"APMH","APMHSPID","Sponsor-Defined Identifier",80,"C",40,,"text",,,"Perm","Assigned","Identifier",,,"UPPERCASE","System generated unique identifier, required for Enriched SDTM generation.","Sponsor-defined reference number. Perhaps pre-printed on the CRF as an explicit line identifier or defined in the sponsor's operational database. Example: Line number on a Medical History page.",,"__SPID","*",,"Y","Y",,,,,,,
"Y","APMH","RDEVID","Related Device",90,"C",40,,"text",,,"Perm",,"RecordQualifier",,,"UPPERCASE",,"Identifier for a related device. RDEVID will be populated with the SPDEVID of the related device.",,"RDEVID","Y",,"Y",,,,,,,,
"Y","APMH","SREL","Subject, Device, or Study Relationship",100,"C",40,,"text","RELSUB",,"Req",,"RecordQualifier","(RELSUB)",,"UPPERCASE",,"If RSUBJID is populated, describes the relationship of the associated person(s) identified in APID to the subject or pool identified in RSUBJID. If RDEVID is populated, describes the relationship of the associated person(s) identified in APID to the device identified in RDEVID. If RSUBJID and RDEVID are null, SREL describes the relationship of the associated person(s) identified in APID to the study identified in STUDYID.",,"SREL","Y",,"Y",,,,,,,,
,"APMH","USUBJID","Unique Subject Identifier",110,"C",60,,"text",,,"Req","Assigned","Identifier",,,"UPPERCASE","Concatenation of STUDYID and DM.SUBJID (This is a variable for internal system use)","Identifier used to uniquely identify a subject across all studies for all applications or submissions involving the product.","NN DEFINED","USUBJID","*",,"Y","Y",,,,,,,
,"APMH","MHGRPID","Group ID",120,"C",60,,"text",,,"Perm",,"Identifier",,,"UPPERCASE",,"Used to tie together a block of related records in a single domain for a subject.",,"__GRPID","Y",,"Y",,,,,,,,
,"APMH","MHREFID","Reference ID",130,"C",40,,"text",,,"Perm",,"Identifier",,,"UPPERCASE",,"Internal or external medical history identifier.",,"__REFID","Y",,"Y",,,,,,,,
"Y","APMH","MHSPID","Sponsor-Defined Identifier",140,"C",40,,"text",,,"Perm","Assigned","Identifier",,,"UPPERCASE","Sponsor-defined identifier. Example: pre-printed line identifier on a Concomitant Medications page.","Sponsor-defined identifier. Example: pre-printed line identifier on a Concomitant Medications page.",,"__SPID","*",,"Y",,,,,,,,
,"APMH","MHLNKID","Link ID",150,"C",40,,"text",,,"Perm","Assigned","Identifier",,,"UPPERCASE",,,,"__LNKID","Y",,"Y",,,,,,,,
,"APMH","MHLNKGRP","Link Group ID",160,"C",40,,"text",,,"Perm","Assigned","Identifier",,,"UPPERCASE",,,,"__LNKGRP","Y",,"Y",,,,,,,,
,"APMH","MHTERM","Reported Term for the Medical History",170,"C",200,,"text",,,"Req",,"Topic",,,"UPPERCASE",,"Verbatim or preprinted CRF term for the medical condition or event.",,"__TERM","Y",,"Y",,,,,,,,
,"APMH","MHMODIFY","Modified Reported Term",180,"C",200,,"text",,,"Perm",,"SynonymQualifier",,,"UPPERCASE",,"If MHTERM is modified to facilitate coding, then MHMODIFY will contain the modified text.",,"__MODIFY","Y",,"Y",,,,,,,,
,"APMH","MHLLT","Lowest Level Term",190,"C",200,,"text",,,"Exp","Assigned","VariableQualifier","MedDRA",,"MIXEDCASE",,,,"__LLT",,,,,,,,,40,"sdtme_std_cd_v$$",
,"APMH","MHLLTCD","Lowest Level Term Code",200,"N",8,,"integer",,,"Exp","Assigned","VariableQualifier","MedDRA",,,,"Dictionary-derived code for the Lowest Level Term.",,"__LLTCD","Y",,"Y",,,,,,40,"sdtme_std_cd_v$$",
,"APMH","MHDECOD","Dictionary-Derived Term",210,"C",200,,"text",,,"Perm","Assigned","SynonymQualifier","*",,"MIXEDCASE",,"Dictionary-derived text description of MHTERM or MHMODIFY. Equivalent to the Preferred Term (PT in MedDRA). The sponsor is expected to provide the dictionary name and version used to map the terms utilizing the define.xml external codelist attributes.",,"__DECOD",,,,,,,,,40,"sdtme_std_cd_v$$",
,"APMH","MHPTCD","Preferred Term Code",220,"N",8,,"integer",,,"Exp","Assigned","VariableQualifier","MedDRA",,,,,,"__PTCD",,,,,,,,,40,"sdtme_std_cd_v$$",
,"APMH","MHHLT","High Level Term",230,"C",200,,"text",,,"Exp","Assigned","VariableQualifier","MedDRA",,"MIXEDCASE",,,,"__HLT",,,,,,,,,40,"sdtme_std_cd_v$$",
,"APMH","MHHLTCD","High Level Term Code",240,"N",8,,"integer",,,"Exp","Assigned","VariableQualifier","MedDRA",,,,,,"__HLTCD",,,,,,,,,40,"sdtme_std_cd_v$$",
,"APMH","MHHLGT","High Level Group Term",250,"C",200,,"text",,,"Exp","Assigned","VariableQualifier","MedDRA",,"MIXEDCASE",,,,"__HLGT",,,,,,,,,40,"sdtme_std_cd_v$$",
,"APMH","MHHLGTCD","High Level Group Term Code",260,"N",8,,"integer",,,"Exp","Assigned","VariableQualifier","MedDRA",,,,,,"__HLGTCD",,,,,,,,,40,"sdtme_std_cd_v$$",
,"APMH","MHCAT","Category for Medical History",270,"C",60,,"text","MHCAT",,"Perm","Assigned","GroupingQualifier","*",,"UPPERCASE",,"Used to define a category of related records. Examples: CARDIAC or GENERAL",,"__CAT","Y","src.cat","Y",,,,,,,,
,"APMH","MHSCAT","Subcategory for Medical History",280,"C",60,,"text","MHSCAT",,"Perm","Assigned","GroupingQualifier","*",,"UPPERCASE",,"A further categorization of the condition or event.",,"__SCAT","Y","src.sub_cat","Y",,,,,,,,
,"APMH","MHPRESP","Medical History Event Pre-Specified",290,"C",2,,"text","NY",,"Perm",,"VariableQualifierof__TERM","(NY)",,"UPPERCASE",,"A value of ""Y"" indicates that this medical history event was pre-specified on the CRF. Values are null for spontaneously reported events (i.e., those collected as free- text verbatim terms)",,"__PRESP","Y",,"Y",,,,,,,,"Y"
,"APMH","MHOCCUR","Medical History Occurrence",300,"C",2,,"text","NY",,"Perm",,"RecordQualifier","(NY)",,"UPPERCASE",,"Used when the occurrence of specific medical history conditions is solicited to indicate whether or not (Y/N) a medical condition (MHTERM) had ever occurred. Values are null for spontaneously reported events.",,"__OCCUR","Y",,"Y",,,,,,,,"Y|N"
,"APMH","MHSTAT","Completion Status",310,"C",40,,"text","ND",,"Perm","Derived","RecordQualifier","(ND)","Set to NOT DONE if 'ND', 'NA', 'NK' ,' ' have been reported on CRF","UPPERCASE",,"The status indicates that the pre-specified question was not asked/answered.",,"__STAT","Y",,"Y",,,,,,,,
,"APMH","MHREASND","Reason Not Done",320,"C",200,,"text",,,"Perm",,"RecordQualifier",,,"UPPERCASE",,"Reason the question was not asked/answered or an intervention did not occur. Used in conjunction with negation indicators --STAT of 'NOT DONE' or --OCCUR of 'N'",,"__REASND","Y",,"Y",,,,,,,,
,"APMH","MHBODSYS","Body System or Organ Class",330,"C",200,,"text",,,"Perm","Assigned","RecordQualifier","MedDRA",,"MIXEDCASE",,"Dictionary-derived. Body system or organ class that is involved in an event or measurement from a standard hierarchy (e.g., MedDRA). When using a multi-axial dictionary such as MedDRA, this should contain the SOC used for the sponsor's analyses and summary tables which may not necessarily be the primary SOC.",,"__BODSYS",,,,,,,,,40,"sdtme_std_cd_v$$",
,"APMH","MHBDSYCD","Body System or Organ Class Code",340,"N",8,,"integer",,,"Perm","Assigned","VariableQualifier","MedDRA",,,,,,"__BDSYCD",,,,,,,,,40,"sdtme_std_cd_v$$",
,"APMH","MHSOC","Primary System Organ Class",350,"C",200,,"text",,,"Perm","Assigned","VariableQualifier","MedDRA",,"MIXEDCASE",,,,"__SOC",,,,,,,,,40,"sdtme_std_cd_v$$",
,"APMH","MHSOCCD","Primary System Organ Class Code",360,"N",8,,"integer",,,"Perm","Assigned","VariableQualifier","MedDRA",,,,,,"__SOCCD",,,,,,,,,40,"sdtme_std_cd_v$$",
,"APMH","MHLOC","Location of Event",370,"C",40,,"text","LOC",,"Perm",,"RecordQualifier","(LOC)",,"UPPERCASE",,,,"__LOC","Y",,"Y",,,,,,,,
,"APMH","MHLAT","Laterality",380,"C",40,,"text","LAT",,"Perm",,"VariableQualifier","(LAT)",,"UPPERCASE",,"Qualifier for anatomical location further detailing laterality. Examples: RIGHT, LEFT, BILATERAL","EVENTS","__LAT","Y",,"Y",,,,,,,,
,"APMH","MHSEV","Severity/Intensity",390,"C",80,,"text",,,"Perm",,"RecordQualifier","*",,"UPPERCASE",,,,"__SEV","Y",,"Y",,,,,,,,
,"APMH","MHSER","Serious Event",400,"C",2,,"text","NY",,"Perm",,"RecordQualifier","(NY)",,"UPPERCASE",,,,"__SER","Y",,"Y",,,,,,,,
,"APMH","MHACN","Action Taken with Study Treatment",410,"C",40,,"text","ACN",,"Perm",,"RecordQualifier","(ACN)",,"UPPERCASE",,,,"__ACN","Y",,"Y",,,,,,,,
,"APMH","MHACNOTH","Other Action Taken",420,"C",200,,"text",,,"Perm",,"RecordQualifier",,,"UPPERCASE",,,,"__ACNOTH","Y",,"Y",,,,,,,,
,"APMH","MHREL","Causality",430,"C",80,,"text",,,"Perm",,"RecordQualifier","*",,"UPPERCASE",,,,"__REL","Y",,"Y",,,,,,,,
,"APMH","MHRELNST","Relationship to Non-Study Treatment",440,"C",40,,"text",,,"Perm",,"RecordQualifier",,,"UPPERCASE",,,,"__RELNST",,,,,,,,,,,
,"APMH","MHPATT","Pattern of Event",450,"C",80,,"text",,,"Perm",,"RecordQualifier","*",,"UPPERCASE",,,,"__PATT",,,,,,,,,,,
,"APMH","MHOUT","Outcome of Event",460,"C",40,,"text","OUT",,"Perm",,"RecordQualifier","(OUT)",,"UPPERCASE",,,,"__OUT","Y",,"Y",,,,,,,,
,"APMH","MHSCAN","Involves Cancer",470,"C",2,,"text","NY",,"Perm",,"RecordQualifier","(NY)",,"UPPERCASE",,,,"__SCAN",,,,,,,,,,,
,"APMH","MHSCONG","Congenital Anomaly or Birth Defect",480,"C",2,,"text","NY",,"Perm",,"RecordQualifier","(NY)",,"UPPERCASE",,,,"__SCONG","Y",,"Y",,,,,,,,
,"APMH","MHSDISAB","Persist or Signif Disability/Incapacity",490,"C",2,,"text","NY",,"Perm",,"RecordQualifier","(NY)",,"UPPERCASE",,,,"__SDISAB","Y",,"Y",,,,,,,,
,"APMH","MHSDTH","Results in Death",500,"C",2,,"text","NY",,"Perm",,"RecordQualifier","(NY)",,"UPPERCASE",,,,"__SDTH","Y",,"Y",,,,,,,,
,"APMH","MHSHOSP","Requires or Prolongs Hospitalization",510,"C",2,,"text","NY",,"Perm",,"RecordQualifier","(NY)",,"UPPERCASE",,,,"__SHOSP","Y",,"Y",,,,,,,,
,"APMH","MHSLIFE","Is Life Threatening",520,"C",2,,"text","NY",,"Perm",,"RecordQualifier","(NY)",,"UPPERCASE",,,,"__SLIFE","Y",,"Y",,,,,,,,
,"APMH","MHSOD","Occurred with Overdose",530,"C",2,,"text","NY",,"Perm",,"RecordQualifier","(NY)",,"UPPERCASE",,,,"__SOD",,,,,,,,,,,
,"APMH","MHSMIE","Other Medically Important Serious Event",540,"C",2,,"text","NY",,"Perm",,"RecordQualifier","(NY)",,"UPPERCASE",,,,"__SMIE","Y",,"Y",,,,,,,,
,"APMH","MHCONTRT","Concomitant or Additional Trtmnt Given",550,"C",2,,"text","NY",,"Perm",,"RecordQualifier","(NY)",,"UPPERCASE",,,,"__CONTRT",,,,,,,,,,,
,"APMH","MHTOX","Toxicity",560,"C",80,,"text",,,"Perm",,"VariableQualifier","*",,"UPPERCASE",,,,"__TOX","Y",,"Y",,,,,,,,
,"APMH","MHTOXGR","Toxicity Grade",570,"C",80,,"text",,,"Perm",,"RecordQualifier","*",,"UPPERCASE",,,,"__TOXGR","Y",,"Y",,,,,,,,
,"APMH","ETCD","Element Code",580,"C",8,,"text",,,"Req","Assigned","RecordQualifier","*",,"UPPERCASE","Set based on the SE domain","ETCD (the companion to ELEMENT) is limited to 8 characters and does not have special character restrictions. These values should be short for ease of use in programming, but it is not expected that ETCD will need to serve as a variable name.","NN DEFINED","ETCD",,,,,,,,,60,"sdtme_std_etcd_v$$",
,"APMH","ELEMENT","Description of Element",590,"C",40,,"text",,,"Req","Protocol","RecordQualifier","*",,"UPPERCASE","Set based on the SE domain","The name of the Element.","NN DEFINED","ELEMENT",,,,,,,,,60,"sdtme_std_etcd_v$$",
,"APMH","VISITNUM","Visit Number",600,"N",8,8.1,"float",,,"Perm","Protocol","Timing",,,,"Multiple unscheduled visits or non-visits can exist having the same visit ID but with different dates. This might result in duplicate records for the same visit number but with different dates",,,"VISITNUM",,"src.vis_id","Y",,,,,,,,
,"APMH","VISIT","Visit Name",610,"C",40,,"text",,,"Perm","Protocol","Timing",,,"UPPERCASE",,,,"VISIT",,,,,,,,,20,"sdtme_std_visit_v$$",
,"APMH","VISITDY","Planned Study Day of Visit",620,"N",8,,"integer",,,"Perm","Assigned","Timing",,,,"Based on TV.VISITDY",,,"VISITDY",,,,,,,,,30,"sdtme_std_visitdy_v$$",
,"APMH","EPOCH","Epoch",630,"C",40,,"text","EPOCH",,"Perm","Protocol","Timing","(EPOCH)",,"UPPERCASE","Set based on the SE domain","Epoch associated with the start date/time of the observation, or the date/time of collection if start date/time is not collected. (See Section 3.2.2).","TIMING","EPOCH",,,,,,,,,50,"sdtme_std_epoch_v$$",
,"APMH","TAETORD","Planned Order of Element within Arm",640,"N",8,,"integer",,,"Perm","Assigned","Timing",,,,,,,"TAETORD",,,,,,,,,,,
,"APMH","MHDTC","Date/Time of History Collection",650,"C",64,,"datetime",,,"Perm",,"Timing","ISO 8601",,"UPPERCASE DATETIME",,,,"__DTC","Y",,"Y",,,,,,,,
,"APMH","MHSTDTC","Start Date/Time of Medical History Event",660,"C",64,,"datetime",,,"Perm",,"Timing","ISO 8601",,"UPPERCASE DATETIME",,,,"__STDTC","Y",,"Y",,,,,,,,
,"APMH","MHENDTC","End Date/Time of Medical History Event",670,"C",64,,"datetime",,,"Perm",,"Timing","ISO 8601",,"UPPERCASE DATETIME",,,,"__ENDTC","Y",,"Y",,,,,,,,
,"APMH","MHDY","Study Day of History Collection",680,"N",8,,"integer",,,"Perm","Derived","Timing",,"Calculation: = MHDTC - RFSTDTC+1 if MHDTC is on or after RFSTDTC,MHDTC - RFSTDTC if MHDTC precedes RFSTDTC",,,"1. Study day of medical history collection, measured as integer days. 2. Algorithm for calculations must be relative to the sponsor-defined RFSTDTC variable in Demographics. This formula should be consistent across the submission.",,"__DY",,,,,,,,,10,"sdtme_std_dy_v$$",
,"APMH","MHSTDY","Study Day of Start of Observation",690,"N",8,,"integer",,,"Perm","Derived","Timing",,"Calculation: = MHSTDTC - RFSTDTC+1 if MHSTDTC is on or after RFSTDTC,MHSTDTC - RFSTDTC if MHSTDTC precedes RFSTDTC",,,,,"__STDY",,,,,,,,,10,"sdtme_std_dy_v$$",
,"APMH","MHENDY","Study Day of End of Observation",700,"N",8,,"integer",,,"Perm","Derived","Timing",,"Calculation: = MHENDTC - RFSTDTC+1 if MHENDTC is on or after RFSTDTC,MHENDTC - RFSTDTC if MHENDTC precedes RFSTDTC",,,,,"__ENDY",,,,,,,,,10,"sdtme_std_dy_v$$",
,"APMH","MHDUR","Duration",710,"C",64,,"text",,,"Perm",,"Timing","ISO 8601",,"UPPERCASE DURATION",,,,"__DUR","Y",,"Y",,,,,,,,
,"APMH","MHTPT","Planned Time Point Name",720,"C",80,,"text",,,"Perm",,"Timing",,,"UPPERCASE",,,,"__TPT","Y",,"Y",,,,,,,,
,"APMH","MHTPTNUM","Planned Time Point Number",730,"N",8,8.1,"float",,,"Perm",,"Timing",,,,,,,"__TPTNUM","Y",,"Y",,,,,,,,
,"APMH","MHELTM","Planned Elapsed Time from Time Point Ref",740,"C",64,,"text",,,"Perm",,"Timing","ISO 8601",,"UPPERCASE DURATION",,,,"__ELTM","Y",,"Y",,,,,,,,
,"APMH","MHTPTREF","Time Point Reference",750,"C",40,,"text",,,"Perm",,"Timing",,,"UPPERCASE",,,,"__TPTREF","Y",,"Y",,,,,,,,
,"APMH","MHRFTDTC","Date/Time of Reference Time Point",760,"C",64,,"datetime",,,"Perm",,"Timing","ISO 8601",,"UPPERCASE DATETIME",,,,"__RFTDTC","Y",,"Y",,,,,,,,
,"APMH","MHSTRF","Start Relative to Reference Period",770,"C",20,,"text","STENRF",,"Perm","Derived","Timing","(STENRF)","Classifies the start of the medication relative to reference period as defined by RFSTDTC and RFENDTC in Demographics.","UPPERCASE","Classifies the start of the medication relative to reference period as defined by RFSTDTC and RFENDTC in Demographics.",,,"__STRF","Y",,"Y",,,,,,,,
,"APMH","MHENRF","End Relative to Reference Period",780,"C",20,,"text","STENRF",,"Perm","Derived","Timing","(STENRF)","Classifies the end of the medication relative to reference period as defined by RFSTDTC and RFENDTC in Demographics. If reported as ongoing on the CRF, the value will be set to ONGOING.","UPPERCASE",,"Describes the end of the event relative to the sponsor-defined reference period. The sponsor-defined reference period is a continuous period of time defined by a discrete starting point and a discrete ending point (represented by RFSTDTC and RFENDTC in Demographics) This variable is proposed for deletion post SDTM V1.4.",,"__ENRF","Y",,"Y",,,,,,,,
,"APMH","MHEVLINT","Evaluation Interval",790,"C",64,,"text",,,"Perm",,"Timing","ISO 8601",,"UPPERCASE DURATION",,,,"__EVLINT","Y",,"Y",,,,,,,,
,"APMH","MHSTRTPT","Start Relative to Reference Time Point",800,"C",40,,"text","STENRF",,"Perm","Assigned","Timing","(STENRF)",,"UPPERCASE",,,,"__STRTPT","Y",,"Y",,,,,,,,
,"APMH","MHSTTPT","Start Reference Time Point",810,"C",40,,"text",,,"Perm","Assigned","Timing",,,"UPPERCASE",,,,"__STTPT","Y",,"Y",,,,,,,,
,"APMH","MHENRTPT","End Relative to Reference Time Point",820,"C",40,,"text","STENRF",,"Perm","Assigned","Timing","(STENRF)",,"UPPERCASE",,"Identifies the end of the event as being before or after the reference time point defined by variable MHENTPT.",,"__ENRTPT","Y",,"Y",,,,,,,,"BEFORE|AFTER|COINCIDENT|ONGOING|U"
,"APMH","MHENTPT","End Reference Time Point",830,"C",40,,"text",,,"Perm","Assigned","Timing",,,"UPPERCASE",,"Description or date/time in ISO 8601 character format of the reference point referred to by MHENRTPT. Examples: ""2003-12-25"" or ""VISIT 2"".",,"__ENTPT","Y",,"Y",,,,,,,,
,"APQS","CDMS_SUB_EVT_NUM","CDMS Repeat Sequence Number",10,"N",8,,"integer",,,"Perm",,"RecordQualifier",,,,,,"NN DEFINED","CDMS_SUB_EVT_NUM",,"src.cdms_sub_evt_num","Y","Y",,,,,,,
,"APQS","SRC_FIND_COLL_UNIT","CDW SRC Finding Collection Unit",20,"C",80,,"text",,,"Perm",,"RecordQualifier",,,,,,"NN DEFINED","SRC_FIND_COLL_UNIT",,"src.find_coll_unit","Y","Y",,,,,,,
,"APQS","TOPIC_CD","CDW Topic Code",30,"C",80,,"text",,,"Perm",,"Topic",,,,,,"NN DEFINED","TOPIC_CD",,"src.topic_cd","Y","Y",,,,,,,
"Y","APQS","STUDYID","Study Identifier",40,"C",40,,"text",,,"Req","Protocol","Identifier",,,"UPPERCASE",,"Unique identifier for a study.",,"STUDYID","*",,"Y",,,,,,,,
"Y","APQS","DOMAIN","Domain Abbreviation",50,"C",8,,"text",,,"Req","Assigned","Identifier",,,"UPPERCASE",,"Four-character abbreviation for the domain, AP--.",,"DOMAIN","*",,"Y",,,,,,,,
"Y","APQS","APID","Associated Persons Identifier",60,"C",60,,"text",,,"Req",,"Identifier",,,"UPPERCASE",,"Identifier for a single associated person, a group of associated persons, or a pool of associated persons. If APID identifies a pool, POOLDEF records must exist for each associated person.",,"APID","Y",,"Y",,,,,,,,
"Y","APQS","QSSEQ","Sequence Number",70,"N",8,,"integer",,,"Req","Assigned","Identifier",,,,,"Sequence number to ensure uniqueness of records within a domain for associated persons. Unique within APID within the domain.",,"__SEQ","*",,"Y",,,,,,,,
"Y","APQS","RSUBJID","Related Subject",80,"C",60,,"text",,,"Exp",,"Identifier",,,"UPPERCASE",,"Identifier for a related study subject or pool of study subjects. The subject(s) may be human or animal. RSUBJID will be populated with the USUBJID of the related subject or the POOLID of the related pool. RSUBJID will be null for data about associated persons who are related to the study but not to any of the study subjects.",,"RSUBJID","Y",,"Y",,,,,,,,
"Y","APQS","RDEVID","Related Device",90,"C",40,,"text",,,"Perm",,"RecordQualifier",,,"UPPERCASE",,"Identifier for a related device. RDEVID will be populated with the SPDEVID of the related device.",,"RDEVID","Y",,"Y",,,,,,,,
"Y","APQS","SREL","Subject, Device, or Study Relationship",100,"C",40,,"text","RELSUB",,"Req",,"RecordQualifier","(RELSUB)",,"UPPERCASE",,"If RSUBJID is populated, describes the relationship of the associated person(s) identified in APID to the subject or pool identified in RSUBJID. If RDEVID is populated, describes the relationship of the associated person(s) identified in APID to the device identified in RDEVID. If RSUBJID and RDEVID are null, SREL describes the relationship of the associated person(s) identified in APID to the study identified in STUDYID.",,"SREL","Y",,"Y",,,,,,,,
,"APQS","USUBJID","Unique Subject Identifier",110,"C",60,,"text",,,"Req","Assigned","Identifier",,,"UPPERCASE","Concatenation of STUDYID and DM.SUBJID (This is a variable for internal system use)","Identifier used to uniquely identify a subject across all studies for all applications or submissions involving the product.","NN DEFINED","USUBJID","*",,"Y","Y",,,,,,,
,"APQS","APQSSPID","Sponsor-Defined Identifier",120,"C",40,,"text",,,"Perm","Assigned","Identifier",,,"UPPERCASE","System generated unique identifier, required for Enriched SDTM generation.",,"IDENTIFIERS","__SPID","*",,"Y","Y",,,,,,,
,"APQS","QSGRPID","Group ID",130,"C",60,,"text",,,"Perm",,"Identifier",,,"UPPERCASE",,"Used to tie together a block of related records in a single domain for a subject.",,"__GRPID","Y",,"Y",,,,,,,,
,"APQS","QSREFID","Reference ID",140,"C",40,,"text",,,"Perm",,"Identifier",,,"UPPERCASE",,,,"__REFID","Y",,"Y",,,,,,,,
"Y","APQS","QSSPID","Sponsor-Defined Identifier",150,"C",40,,"text",,,"Perm","Assigned","Identifier",,,"UPPERCASE","Sponsor-defined identifier. Example: pre-printed line identifier on a Concomitant Medications page.","Sponsor-defined identifier. Example: pre-printed line identifier on a Concomitant Medications page.",,"__SPID","*",,"Y",,,,,,,,
,"APQS","QSLNKID","Link ID",160,"C",40,,"text",,,"Perm",,"Identifier",,,"UPPERCASE",,"Identifier used to link related records across domains. This may be a one-to- one or a one-to-many relationship. For Example: A single tumor may have multiple measurements/assessments performed at each study visit.","IDENTIFIERS","__LNKID","Y",,"Y",,,,,,,,
,"APQS","QSLNKGRP","Link Group ID",170,"C",40,,"text",,,"Perm","Assigned","Identifier",,,"UPPERCASE",,"Identifier used to link related records across domains. This will usually be a many-to-one relationship. For example: Multiple tumor measurements/assessments will contribute to a single response to therapy determination record.","IDENTIFIERS","__LNKGRP","Y",,"Y",,,,,,,,
,"APQS","QSTESTCD","Question Short Name",180,"C",8,,"text","QSTESTCD","Y","Req","Assigned","Topic","(QSTESTCD)",,"UPPERCASE",,"Topic variable for QS. Short name for the value in QSTEST, which can be used as a column name when converting the dataset from a vertical format to a horizontal format. The value in QSTESTCD cannot be longer than 8 characters, nor can it start with a number (e.g.""1TEST""). QSTESTCD cannot contain characters other than letters, numbers, or underscores. See QS Terminology Spreadsheet for specific text for QSTESTCD. Examples: ADCCMD01, BPR0103",,"__TESTCD","Y",,"Y",,,,,,,,
,"APQS","QSTEST","Question Name",190,"C",40,,"text","QSTEST","Y","Req","Assigned","SynonymQualifier","(QSTEST)",,"MIXEDCASE",,"Verbatim name of the question or group of questions used to obtain the measurement or finding. The value in QSTEST cannot be longer than 40 characters. See QS Terminology Spreadsheet for specific text for QSTEST. Example: Fist, BPR01 - Emotional Withdrawal",,"__TEST","Y",,"Y",,,,,,,,
,"APQS","QSCAT","Category of Question",200,"C",60,,"text","QSCAT",,"Req","Assigned","GroupingQualifier","(QSCAT)",,"UPPERCASE",,"Used to define a category of related records that will be meaningful to the Reviewer. See QS Terminology Spreadsheet for specific text for QSCAT. Examples: ADAS-COG, MDS-UPDRS.",,"__CAT","Y","src.cat","Y",,,,,,,,
,"APQS","QSSCAT","Subcategory for Question",210,"C",60,,"text",,,"Perm","Assigned","GroupingQualifier","*",,"UPPERCASE",,"A further categorization of the questions within the category. Examples: MENTAL HEALTH DOMAIN, DEPRESSION DOMAIN, WORD RECALL.",,"__SCAT","Y","src.sub_cat","Y",,,,,,,,
,"APQS","QSORRES","Finding in Original Units",220,"C",200,,"text",,,"Exp",,"ResultQualifier",,,"UPPERCASE",,"Finding as originally received or collected (e.g. RARELY, SOMETIMES). When sponsors apply codelist to indicate the code values are statistically meaningful standardized scores, which are defined by sponsors or by valid methodologies such as SF36 questionnaires, QSORRES will contain the decode format, and QSSTRESC and QSSTRESN may contain the standardized code values or scores.",,"__ORRES","Y",,"Y",,"QSTESTCD","QSTEST",,,,,
,"APQS","QSORRESU","Original Units",230,"C",40,,"text","UNIT",,"Perm",,"VariableQualifier","(UNIT)",,"MIXEDCASE",,"Original units in which the data were collected. The unit for QSORRES, such as minutes or seconds or the units associated with a visual analog scale.",,"__ORRESU","Y",,"Y",,"QSTESTCD","QSTEST","Y",,,,
,"APQS","QSSTRESC","Result or Finding in Standard Format",240,"C",200,,"text",,,"Exp","Derived","ResultQualifier",,"QSORRES converted into standard unit","UPPERCASE",,"Contains the finding for all questions or sub-scores, copied or derived from QSORRES in a standard format or standard units. QSSTRESC should store all findings in character format; if findings are numeric, they should also be stored in numeric format in QSSTRESN. If question scores are derived from the original finding, then the standard format is the score. Examples: 0, 1. When sponsors apply codelist to indicate the code values are statistically meaningful standardized scores, which are defined by sponsors or by valid methodologies such as SF36 questionnaires, QSORRES will contain the decode format, and QSSTRESC and QSSTRESN may contain the standardized code values or scores.",,"__STRESC",,,"Y",,,,,,80,"sdtme_std_stres_v$$",
,"APQS","QSSTRESN","Numeric Finding in Standard Units",250,"N",8,8.3,"float",,,"Perm","Derived","ResultQualifier",,"QSORRES converted into standard unit",,,"Used for continuous or numeric findings in standard format; copied in numeric format from QSSTRESC. QSSTRESN should store all numeric results or findings.",,"__STRESN",,,,,,,,,80,"sdtme_std_stres_v$$",
,"APQS","QSSTRESU","Standard Units",260,"C",40,,"text","UNIT",,"Perm","Assigned","VariableQualifier","(UNIT)",,"MIXEDCASE",,"Standardized unit used for QSSTRESC or QSSTRESN.",,"__STRESU",,,,,,,,,70,"sdtme_std_stresu_v$$",
,"APQS","QSSTAT","Completion Status",270,"C",40,,"text","ND",,"Perm","Derived","RecordQualifier","(ND)","Set to NOT DONE if 'ND', 'NA', 'NK' ,' ' have been reported on CRF","UPPERCASE",,"Used to indicate a questionnaire or response to a questionnaire was not done. Should be null if a result exists in QSORRES.",,"__STAT","Y",,"Y",,,,,,5,"sdtme_qs_stat_v$$",
,"APQS","QSREASND","Reason Not Performed",280,"C",200,,"text",,,"Perm","Derived","RecordQualifier",,"Set to NOT COLLECTED if QSSTAT is set to NOT DONE","UPPERCASE",,"Describes why a question was not answered. Used in conjunction with QSSTAT when value is NOT DONE. Example: SUBJECT REFUSED.",,"__REASND","Y",,"Y",,,,,,5,"sdtme_qs_stat_v$$",
,"APQS","QSBLFL","Baseline Flag",290,"C",2,,"text","NY",,"Exp","Derived","RecordQualifier","(NY)","Baseline flag set to Y when the assessment is collected at the visit marked as baseline in the trial flowchart","UPPERCASE",,"Indicator used to identify a baseline value. The value should be ""Y"" or null.",,"__BLFL",,,,,,,,,20,"sdtme_std_blfl_v$$","Y"
,"APQS","QSDRVFL","Derived Flag",300,"C",2,,"text","NY",,"Perm",,"RecordQualifier","(NY)",,"UPPERCASE",,"Used to indicate a derived record. The value should be Y or null. Records that represent the average of other records or questionnaire sub-scores that do not come from the CRF are examples of records that would be derived for the submission datasets. If QSDRVFL=Y, then QSORRES may be null with QSSTRESC and (if numeric) QSSTRESN having the derived value.",,"__DRVFL",,,,,,,,,,,"Y"
,"APQS","QSEVAL","Evaluator",310,"C",40,,"text","EVAL",,"Perm",,"RecordQualifier","(EVAL)",,"UPPERCASE",,"Role of the person who provided the evaluation. Examples: STUDY SUBJECT, CAREGIVER, INVESTIGATOR.",,"__EVAL","Y",,"Y",,,,,,,,
,"APQS","QSEVALID","Evaluator Identifier",320,"C",40,,"text","MEDEVAL",,"Perm",,"VariableQualifier","(MEDEVAL)",,"UPPERCASE",,"Used to distinguish multiple evaluators with the same role recorded in --EVAL. Examples: RADIOLOGIST1 or RADIOLOGIST2","FINDINGS","__EVALID","Y",,"Y",,,,,,,,
,"APQS","QSREPNUM","Repetition Number",330,"N",8,,"integer",,,"Perm",,"RecordQualifier",,,,,"The incidence number of a test that is repeated within a given timeframe for the same test. The level of granularity can vary, e.g., within a time point or within a visit. For example, multiple measurements of blood pressure or multiple analyses of a sample.","FINDINGS","__REPNUM","Y",,"Y",,,,,,,,
,"APQS","ETCD","Element Code",340,"C",8,,"text",,,"Req","Assigned","RecordQualifier","*",,"UPPERCASE","Set based on the SE domain","ETCD (the companion to ELEMENT) is limited to 8 characters and does not have special character restrictions. These values should be short for ease of use in programming, but it is not expected that ETCD will need to serve as a variable name.","NN DEFINED","ETCD",,,,,,,,,60,"sdtme_std_etcd_v$$",
,"APQS","ELEMENT","Description of Element",350,"C",40,,"text",,,"Req","Protocol","RecordQualifier","*",,"UPPERCASE","Set based on the SE domain","The name of the Element.","NN DEFINED","ELEMENT",,,,,,,,,60,"sdtme_std_etcd_v$$",
,"APQS","VISITNUM","Visit Number",360,"N",8,8.1,"float",,,"Exp","Protocol","Timing",,,,,"1. Clinical encounter number. 2. Numeric version of VISIT, used for sorting.",,"VISITNUM",,"src.vis_id","Y",,,,,,,,
,"APQS","VISIT","Visit Name",370,"C",40,,"text",,,"Perm","Protocol","Timing",,,"UPPERCASE",,"1. Protocol-defined description of clinical encounter. 2. May be used in addition to VISITNUM and/or VISITDY.",,"VISIT",,,,,,,,,30,"sdtme_std_visit_v$$",
,"APQS","VISITDY","Planned Study Day of Visit",380,"N",8,,"integer",,,"Perm","Assigned","Timing",,,,"Based on TV.VISITDY","Planned study day of the visit based upon RFSTDTC in Demographics.",,"VISITDY",,,,,,,,,40,"sdtme_std_visitdy_v$$",
,"APQS","EPOCH","Epoch",390,"C",40,,"text","EPOCH",,"Perm","Protocol","Timing","(EPOCH)",,"UPPERCASE","Set based on the SE domain","Epoch associated with the start date/time of the observation, or the date/time of collection if start date/time is not collected. (See Section 3.2.2).","TIMING","EPOCH",,,,,,,,,50,"sdtme_std_epoch_v$$",
,"APQS","QSDTC","Date/Time of Finding",400,"C",64,,"datetime",,,"Exp","Assigned","Timing","ISO 8601",,"UPPERCASE DATETIME",,"Date of questionnaire.",,"__DTC","Y",,"Y",,,,,,,,
,"APQS","QSDY","Study Day of Finding",410,"N",8,,"integer",,,"Perm","Derived","Timing",,"Calculation: = QSDTC - RFSTDTC+1 if QSDTC is on or after RFSTDTC,QSDTC - RFSTDTC if QSDTC precedes RFSTDTC",,,"1. Study day of finding collection, measured as integer days. 2. Algorithm for calculations must be relative to the sponsor-defined RFSTDTC variable in Demographics.",,"__DY",,,,,,,,,10,"sdtme_std_dy_v$$",
,"APQS","QSTPT","Planned Time Point Name",420,"C",80,,"text",,,"Perm","Assigned","Timing",,,"UPPERCASE",,"1. Text Description of time when questionnaire should be administered. 2. This may be represented as an elapsed time relative to a fixed reference point, such as time of last dose. See QSTPTNUM and QSTPTREF.",,"__TPT","Y",,"Y",,,,,,,,
,"APQS","QSTPTNUM","Planned Time Point Number",430,"N",8,8.1,"float",,,"Perm","Assigned","Timing",,,,,"Numerical version of QSTPT to aid in sorting.",,"__TPTNUM","Y",,"Y",,,,,,,,
,"APQS","QSELTM","Planned Elapsed Time from Time Point Ref",440,"C",64,,"text",,,"Perm",,"Timing","ISO 8601",,"UPPERCASE DURATION",,"Planned Elapsed time (in ISO 8601) relative to a planned fixed reference (QSTPTREF). This variable is useful where there are repetitive measures. Not a clock time or a date time variable. Represented as an ISO 8601 duration. Examples: ""-PT15M"" to represent the period of 15 minutes prior to the reference point indicated by QSTPTREF, or ""PT8H"" to represent the period of 8 hours after the reference point indicated by QSTPTREF.",,"__ELTM","Y",,"Y",,,,,,,,
,"APQS","QSTPTREF","Time Point Reference",450,"C",40,,"text",,,"Perm","Assigned","Timing",,,"UPPERCASE",,"Name of the fixed reference point referred to by QSELTM, QSTPTNUM, and QSTPT. Examples: PREVIOUS DOSE, PREVIOUS MEAL.",,"__TPTREF","Y",,"Y",,,,,,,,
,"APQS","QSRFTDTC","Date/Time of Reference Time Point",460,"C",64,,"datetime",,,"Perm",,"Timing","ISO 8601",,"UPPERCASE DATETIME",,"Date/time of the reference time point, LBTPTREF.",,"__RFTDTC","Y",,"Y",,,,,,,,
,"APQS","QSEVLINT","Evaluation Interval",470,"C",64,,"text",,,"Perm","CRF","Timing","ISO 8601",,"UPPERCASE DURATION",,"Evaluation Interval associated with a QSTEST question represented in ISO 8601 character format. Example: ""-P2Y"" to represent an interval of 2 years in the question ""Have you experienced any episodes in the past 2 years?""",,"__EVLINT","Y",,"Y",,,,,,,,
,"APQS","QSEVINTX","Evaluation Interval Text",480,"C",40,,"text",,,"Perm","CRF","Timing",,,"UPPERCASE",,"Evaluation interval associated with an observation, where the interval is not able to be represented in ISO 8601 format. Examples: LIFETIME, LAST NIGHT, RECENTLY, OVER THE LAST FEW WEEKS.","TIMING","__EVINTX","Y",,"Y",,,,,,,,
,"APRP","CDMS_SUB_EVT_NUM","CDMS Repeat Sequence Number",10,"N",8,,"integer",,,"Perm",,"RecordQualifier",,,,,,"NN DEFINED","CDMS_SUB_EVT_NUM",,"src.cdms_sub_evt_num","Y","Y",,,,,,,
,"APRP","SRC_FIND_COLL_UNIT","CDW SRC Finding Collection Unit",20,"C",80,,"text",,,"Perm",,"RecordQualifier",,,,,,"NN DEFINED","SRC_FIND_COLL_UNIT",,"src.src_find_coll_unit","Y","Y",,,,,,,
,"APRP","TOPIC_CD","CDW Topic Code",30,"C",80,,"text",,,"Perm",,"Topic",,,,,,"NN DEFINED","TOPIC_CD",,"src.topic_cd","Y","Y",,,,,,,
"Y","APRP","STUDYID","Study Identifier",40,"C",40,,"text",,,"Req","Protocol","Identifier",,,"UPPERCASE",,"Unique identifier for a study.",,"STUDYID","*",,"Y",,,,,,,,
"Y","APRP","DOMAIN","Domain Abbreviation",50,"C",8,,"text",,,"Req","Assigned","Identifier",,,"UPPERCASE",,"Four-character abbreviation for the domain, AP--.",,"DOMAIN","*",,"Y",,,,,,,,
"Y","APRP","APID","Associated Persons Identifier",60,"C",60,,"text",,,"Req",,"Identifier",,,"UPPERCASE",,"Identifier for a single associated person, a group of associated persons, or a pool of associated persons. If APID identifies a pool, POOLDEF records must exist for each associated person.",,"APID","Y",,"Y",,,,,,,,
"Y","APRP","RPSEQ","Sequence Number",70,"N",8,,"integer",,,"Req","Assigned","Identifier",,,,,"Sequence number to ensure uniqueness of records within a domain for associated persons. Unique within APID within the domain.",,"__SEQ","*",,"Y",,,,,,,,
"Y","APRP","RSUBJID","Related Subject",80,"C",60,,"text",,,"Exp",,"Identifier",,,"UPPERCASE",,"Identifier for a related study subject or pool of study subjects. The subject(s) may be human or animal. RSUBJID will be populated with the USUBJID of the related subject or the POOLID of the related pool. RSUBJID will be null for data about associated persons who are related to the study but not to any of the study subjects.",,"RSUBJID","Y",,"Y",,,,,,,,
"Y","APRP","RDEVID","Related Device",90,"C",40,,"text",,,"Perm",,"RecordQualifier",,,"UPPERCASE",,"Identifier for a related device. RDEVID will be populated with the SPDEVID of the related device.",,"RDEVID","Y",,"Y",,,,,,,,
"Y","APRP","SREL","Subject, Device, or Study Relationship",100,"C",40,,"text","RELSUB",,"Req",,"RecordQualifier","(RELSUB)",,"UPPERCASE",,"If RSUBJID is populated, describes the relationship of the associated person(s) identified in APID to the subject or pool identified in RSUBJID. If RDEVID is populated, describes the relationship of the associated person(s) identified in APID to the device identified in RDEVID. If RSUBJID and RDEVID are null, SREL describes the relationship of the associated person(s) identified in APID to the study identified in STUDYID.",,"SREL","Y",,"Y",,,,,,,,
,"APRP","USUBJID","Unique Subject Identifier",110,"C",60,,"text",,,"Req","Assigned","Identifier",,,"UPPERCASE","Concatenation of STUDYID and DM.SUBJID (This is a variable for internal system use)","Identifier used to uniquely identify a subject across all studies for all applications or submissions involving the product.","NN DEFINED","USUBJID","*",,"Y","Y",,,,,,,
,"APRP","APRPSPID","Sponsor-Defined Identifier",120,"C",40,,"text",,,"Perm","Assigned","Identifier",,,"UPPERCASE","System generated unique identifier, required for Enriched SDTM generation.","Sponsor-defined identifier. Perhaps pre-printed on the CRF as an explicit line identifier or defined in the sponsor's operational database.",,"__SPID","*",,"Y","Y",,,,,,,
,"APRP","RPGRPID","Group ID",130,"C",60,,"text",,,"Perm",,"Identifier",,,"UPPERCASE",,"Used to tie together a block of related records in a single domain for a subject.",,"__GRPID","Y",,"Y",,,,,,,,
,"APRP","RPREFID","Reference ID",140,"C",40,,"text",,,"Perm",,"Identifier",,,"UPPERCASE",,"Internal or external Reproductive System Findings record identifier.",,"__REFID","Y",,"Y",,,,,,,,
"Y","APRP","RPSPID","Sponsor-Defined Identifier",150,"C",40,,"text",,,"Perm","Assigned","Identifier",,,"UPPERCASE","Sponsor-defined identifier. Example: pre-printed line identifier on a Concomitant Medications page.","Sponsor-defined identifier. Example: pre-printed line identifier on a Concomitant Medications page.",,"__SPID","*",,"Y",,,,,,,,
,"APRP","RPLNKID","Link ID",160,"C",40,,"text",,,"Perm",,"Identifier",,,"UPPERCASE",,"Identifier used to link related records across domains. This may be a one-to- one or a one-to-many relationship. For Example: A single tumor may have multiple measurements/assessments performed at each study visit.","IDENTIFIERS","__LNKID","Y",,"Y",,,,,,,,
,"APRP","RPLNKGRP","Link Group ID",170,"C",40,,"text",,,"Perm","Assigned","Identifier",,,"UPPERCASE",,"Identifier used to link related records across domains. This will usually be a many-to-one relationship. For example: Multiple tumor measurements/assessments will contribute to a single response to therapy determination record.","IDENTIFIERS","__LNKGRP","Y",,"Y",,,,,,,,
,"APRP","RPTESTCD","Repro System Findings Test Short Name",180,"C",8,,"text","RPTESTCD",,"Req","Assigned","Topic","(RPTESTCD)",,"UPPERCASE",,"Short name of the measurement, test, or examination described in RPTEST. It can be used as a column name when converting a dataset from a vertical to a horizontal format. The value in RPTESTCD cannot be longer than 8 characters, nor can it start with a number (e.g.""1TEST""). RPTESTCD cannot contain characters other than letters, numbers, or underscores. Examples: NUMLIV, NUMPREG, BCMETHOD, etc.",,"__TESTCD","Y",,"Y",,,,,,,,
,"APRP","RPTEST","Reproductive System Findings Test Name",190,"C",40,,"text","RPTEST",,"Req","Assigned","SynonymQualifier","(RPTEST)",,"MIXEDCASE",,"Verbatim name of the test or examination used to obtain the measurement or finding. The value in RPTEST cannot be longer than 40 characters. Examples: Number of Live Births, Number of Pregnancies, Birth Control Method, etc.",,"__TEST","Y",,"Y",,,,,,,,
,"APRP","RPCAT","Category for Repro System Findings",200,"C",60,,"text","RPCAT",,"Perm","Assigned","GroupingQualifier","*",,"UPPERCASE",,"Used to define a category of related records.",,"__CAT","Y","src.cat","Y",,,,,,,,
,"APRP","RPSCAT","Subcategory for Repro System Findings",210,"C",60,,"text",,,"Perm","Assigned","GroupingQualifier","*",,"UPPERCASE",,"A further categorization of RP records.",,"__SCAT","Y","src.sub_cat","Y",,,,,,,,
,"APRP","RPORRES","Result or Finding in Original Units",220,"C",200,,"text",,,"Exp",,"ResultQualifier",,,"UPPERCASE",,"Result of the Reproductive System Findings test as originally received or collected.",,"__ORRES","Y",,"Y",,,,,,,,
,"APRP","RPORRESU","Original Units",230,"C",40,,"text","UNIT",,"Exp",,"VariableQualifier","(UNIT)",,"MIXEDCASE",,"Original units in which the data were collected. The unit for RPORRES. Examples: YEARS.",,"__ORRESU","Y",,"Y",,,,,,,,
,"APRP","RPSTRESC","Character Result/Finding in Std. Format",240,"C",200,,"text",,,"Exp","Derived","ResultQualifier",,"RPORRES converted into standard unit","UPPERCASE",,"Contains the result value for all findings, copied or derived from RPORRES in a standard format or standard units. RPSTRESC should store all results or findings in character format; if results are numeric, they should also be stored in numeric format in RPSTRESN. For example, if a test has results ""NONE"", ""NEG"", and ""NEGATIVE"" in RPORRES and these results effectively have the same meaning; they could be represented in standard format in RPSTRESC as ""NEGATIVE"".",,"__STRESC","Y",,"Y",,,,,,60,"sdtme_std_stres_v$$",
,"APRP","RPSTRESN","Numeric Result/Finding in Standard Units",250,"N",8,8.3,"float",,,"Exp","Derived","ResultQualifier",,"RPORRES converted into standard unit",,,"Used for continuous or numeric results or findings in standard format; copied in numeric format from RPSTRESC. RPSTRESN should store all numeric test results or findings.",,"__STRESN",,,,,,,,,60,"sdtme_std_stres_v$$",
,"APRP","RPSTRESU","Standard Units",260,"C",40,,"text","UNIT",,"Exp","Assigned","VariableQualifier","(UNIT)",,"MIXEDCASE",,"Standardized unit used for RPSTRESC and RPSTRESN.",,"__STRESU",,,,,,,,,50,"sdtme_std_stresu_v$$",
,"APRP","RPSTAT","Completion Status",270,"C",40,,"text","ND",,"Perm","Derived","RecordQualifier","(ND)","Set to NOT DONE if 'ND', 'NA', 'NK' ,' ' have been reported on CRF","UPPERCASE",,"Used to indicate that a Reproductive System Findings test was not done. Should be null if a result exists in RPORRES.",,"__STAT","Y",,"Y",,,,,,,,
,"APRP","RPREASND","Reason Not Performed",280,"C",200,,"text",,,"Perm","Derived","RecordQualifier",,"Reported reason for reason not done or classification based on why response was not collected","UPPERCASE",,"Describes why a measurement or test was not performed. Examples: BROKEN EQUIPMENT or SUBJECT REFUSED. Used in conjunction with RPSTAT when value is NOT DONE.",,"__REASND","Y",,"Y",,,,,,,,
,"APRP","RPMETHOD","Method of Test or Examination",290,"C",80,,"text","METHOD",,"Perm",,"RecordQualifier","(METHOD)",,"UPPERCASE",,,,"__METHOD","Y",,"Y",,,,,,,,
,"APRP","RPBLFL","Baseline Flag",300,"C",2,,"text","NY",,"Perm","Derived","RecordQualifier","(NY)","Baseline flag set to Y when the assessment is collected at the visit marked as baseline in the trial flowchart","UPPERCASE",,"Indicator used to identify a baseline value. The value should be ""Y"" or null.",,"__BLFL",,,,,,,,,20,"sdtme_std_blfl_v$$","Y"
,"APRP","RPDRVFL","Derived Flag",310,"C",2,,"text","NY",,"Perm",,"RecordQualifier","(NY)",,"UPPERCASE",,"Used to indicate a derived record. The value should be Y or null. Records which represent the average of other records or which do not come from the CRF are examples of records that would be derived for the submission datasets. If RPDRVFL=Y, then RPORRES may be null, with RPSTRESC and (if numeric) RPSTRESN having the derived value.",,"__DRVFL",,,,,,,,,,,"Y"
,"APRP","RPTOX","Toxicity",320,"C",80,,"text",,,"Perm",,"VariableQualifier","*",,"UPPERCASE",,,,"__TOX",,,,,,,,,,,
,"APRP","RPTOXGR","Toxicity Grade",330,"C",80,,"text",,,"Perm",,"RecordQualifier","*",,"UPPERCASE",,,,"__TOXGR",,,,,,,,,,,
,"APRP","RPEVAL","Evaluator",340,"C",40,,"text","EVAL",,"Perm",,"RecordQualifier","(EVAL)",,"UPPERCASE",,"Role of the person who provided the evaluation. Used only for results that are subjective (e.g., assigned by a person or a group). Examples: ADJUDICATION COMMITTEE, INDEPENDENT ASSESSOR, RADIOLOGIST.","FINDINGS","__EVAL","Y",,"Y",,,,,,,,
,"APRP","RPEVALID","Evaluator Identifier",350,"C",40,,"text","MEDEVAL",,"Perm",,"VariableQualifier","(MEDEVAL)",,"UPPERCASE",,"Used to distinguish multiple evaluators with the same role recorded in --EVAL. Examples: RADIOLOGIST1 or RADIOLOGIST2","FINDINGS","__EVALID","Y",,"Y",,,,,,,,
,"APRP","RPREPNUM","Repetition Number",360,"N",8,,"integer",,,"Perm",,"RecordQualifier",,,,,"The incidence number of a test that is repeated within a given timeframe for the same test. The level of granularity can vary, e.g., within a time point or within a visit. For example, multiple measurements of blood pressure or multiple analyses of a sample.","FINDINGS","__REPNUM","Y",,"Y",,,,,,,,
,"APRP","ETCD","Element Code",370,"C",8,,"text",,,"Req","Assigned","RecordQualifier","*",,"UPPERCASE","Set based on the SE domain","ETCD (the companion to ELEMENT) is limited to 8 characters and does not have special character restrictions. These values should be short for ease of use in programming, but it is not expected that ETCD will need to serve as a variable name.","NN DEFINED","ETCD",,,,,,,,,80,"sdtme_std_etcd_v$$",
,"APRP","ELEMENT","Description of Element",380,"C",40,,"text",,,"Req","Protocol","RecordQualifier","*",,"UPPERCASE","Set based on the SE domain","The name of the Element.","NN DEFINED","ELEMENT",,,,,,,,,80,"sdtme_std_etcd_v$$",
,"APRP","VISITNUM","Visit Number",390,"N",8,8.1,"float",,,"Perm","Protocol","Timing",,,,,"1. Clinical encounter number. 2. Numeric version of VISIT, used for sorting.",,"VISITNUM",,"src.vis_id","Y",,,,,,,,
,"APRP","VISIT","Visit Name",400,"C",40,,"text",,,"Perm","Protocol","Timing",,,"UPPERCASE",,"1. Protocol-defined description of clinical encounter. 2. May be used in addition to VISITNUM and/or VISITDY.",,"VISIT",,,,,,,,,30,"sdtme_std_visit_v$$",
,"APRP","VISITDY","Planned Study Day of Visit",410,"N",8,,"integer",,,"Perm","Assigned","Timing",,,,"Based on TV.VISITDY","Planned study day of the visit based upon RFSTDTC in Demographics.",,"VISITDY",,,,,,,,,40,"sdtme_std_visitdy_v$$",
,"APRP","EPOCH","Epoch",420,"C",40,,"text","EPOCH",,"Perm","Protocol","Timing","(EPOCH)",,"UPPERCASE","Set based on the SE domain","Epoch associated with the start date/time of the observation, or the date/time of collection if start date/time is not collected. (See Section 3.2.2).","TIMING","EPOCH",,,,,,,,,70,"sdtme_std_epoch_v$$",
,"APRP","RPDTC","Date/Time of Measurements",430,"C",64,,"datetime",,,"Exp","Assigned","Timing","ISO 8601",,"UPPERCASE DATETIME",,"Date of Reproductive System Finding.",,"__DTC","Y",,"Y",,,,,,,,
,"APRP","RPENDTC","End Date/Time of Observation",440,"C",64,,"datetime",,,"Perm",,"Timing","ISO 8601",,"UPPERCASE DATETIME",,,,"__ENDTC","Y",,"Y",,,,,,,,
,"APRP","RPDY","Study Day of Repro System Findings",450,"N",8,,"integer",,,"Perm","Derived","Timing",,"Calculation: = REDTC - RFSTDTC+1 if REDTC is on or after RFSTDTC,REDTC - RFSTDTC if REDTC precedes RFSTDTC",,,"1. Study day of Reproductive System Findings observation, measured as integer days. 2. Algorithm for calculations must be relative to the sponsor-defined RFSTDTC variable in Demographics.",,"__DY",,,,,,,,,10,"sdtme_std_dy_v$$",
,"APRP","RPENDY","Study Day of End of Observation",460,"N",8,,"integer",,,"Perm","Derived","Timing",,"Calculation: = RPENDTC - RFSTDTC+1 if RPENDTC is on or after RFSTDTC,RPENDTC - RFSTDTC if RPENDTC precedes RFSTDTC",,,"Actual study day of end of observation expressed in integer days relative to the sponsor-defined RFSTDTC in Demographics.","TIMING","__ENDY",,,,,,,,,10,"sdtme_std_dy_v$$",
,"APRP","RPTPT","Planned Time Point Name",470,"C",80,,"text",,,"Perm",,"Timing",,,"UPPERCASE",,,,"__TPT","Y",,"Y",,,,,,,,
,"APRP","RPTPTNUM","Planned Time Point Number",480,"N",8,8.1,"float",,,"Perm",,"Timing",,,,,,,"__TPTNUM","Y",,"Y",,,,,,,,
,"APRP","RPELTM","Planned Elapsed Time from Time Point Ref",490,"C",64,,"text",,,"Perm",,"Timing","ISO 8601",,"UPPERCASE DURATION",,,,"__ELTM","Y",,"Y",,,,,,,,
,"APRP","RPTPTREF","Time Point Reference",500,"C",40,,"text",,,"Perm",,"Timing",,,"UPPERCASE",,,,"__TPTREF","Y",,"Y",,,,,,,,
,"APRP","RPRFTDTC","Date/Time of Reference Time Point",510,"C",64,,"datetime",,,"Perm",,"Timing","ISO 8601",,"UPPERCASE DATETIME",,,,"__RFTDTC","Y",,"Y",,,,,,,,
,"APRS","CDMS_SUB_EVT_NUM","CDMS Repeat Sequence Number",10,"N",8,,"integer",,,"Perm",,"RecordQualifier",,,,,,"NN DEFINED","CDMS_SUB_EVT_NUM",,"src.cdms_sub_evt_num","Y","Y",,,,,,,
,"APRS","SRC_FIND_COLL_UNIT","CDW SRC Finding Collection Unit",20,"C",80,,"text",,,"Perm",,"RecordQualifier",,,,,,"NN DEFINED","SRC_FIND_COLL_UNIT",,"src.src_find_coll_unit","Y","Y",,,,,,,
,"APRS","TOPIC_CD","CDW Topic Code",30,"C",80,,"text",,,"Perm",,"Topic",,,,,,"NN DEFINED","TOPIC_CD",,"src.topic_cd","Y","Y",,,,,,,
"Y","APRS","STUDYID","Study Identifier",40,"C",40,,"text",,,"Req","Protocol","Identifier",,,"UPPERCASE",,"Unique identifier for a study.",,"STUDYID","*",,"Y",,,,,,,,
"Y","APRS","DOMAIN","Domain Abbreviation",50,"C",8,,"text",,,"Req","Assigned","Identifier",,,"UPPERCASE",,"Four-character abbreviation for the domain, AP--.",,"DOMAIN","*",,"Y",,,,,,,,
"Y","APRS","APID","Associated Persons Identifier",60,"C",60,,"text",,,"Req",,"Identifier",,,"UPPERCASE",,"Identifier for a single associated person, a group of associated persons, or a pool of associated persons. If APID identifies a pool, POOLDEF records must exist for each associated person.",,"APID","Y",,"Y",,,,,,,,
"Y","APRS","RSSEQ","Sequence Number",70,"N",8,,"integer",,,"Req","Assigned","Identifier",,,,,"Sequence number to ensure uniqueness of records within a domain for associated persons. Unique within APID within the domain.",,"__SEQ","*",,"Y",,,,,,,,
"Y","APRS","RSUBJID","Related Subject",80,"C",60,,"text",,,"Exp",,"Identifier",,,"UPPERCASE",,"Identifier for a related study subject or pool of study subjects. The subject(s) may be human or animal. RSUBJID will be populated with the USUBJID of the related subject or the POOLID of the related pool. RSUBJID will be null for data about associated persons who are related to the study but not to any of the study subjects.",,"RSUBJID","Y",,"Y",,,,,,,,
,"APRS","APRSSPID","Sponsor-Defined Identifier",90,"C",40,,"text",,,"Perm","Assigned","Identifier",,,"UPPERCASE","System generated unique identifier, required for Enriched SDTM generation.",,"IDENTIFIERS","__SPID","*",,"Y","Y",,,,,,,
"Y","APRS","RDEVID","Related Device",100,"C",40,,"text",,,"Perm",,"RecordQualifier",,,"UPPERCASE",,"Identifier for a related device. RDEVID will be populated with the SPDEVID of the related device.",,"RDEVID","Y",,"Y",,,,,,,,
"Y","APRS","SREL","Subject, Device, or Study Relationship",110,"C",40,,"text","RELSUB",,"Req",,"RecordQualifier","(RELSUB)",,"UPPERCASE",,"If RSUBJID is populated, describes the relationship of the associated person(s) identified in APID to the subject or pool identified in RSUBJID. If RDEVID is populated, describes the relationship of the associated person(s) identified in APID to the device identified in RDEVID. If RSUBJID and RDEVID are null, SREL describes the relationship of the associated person(s) identified in APID to the study identified in STUDYID.",,"SREL","Y",,"Y",,,,,,,,
,"APRS","USUBJID","Unique Subject Identifier",120,"C",60,,"text",,,"Req","Assigned","Identifier",,,"UPPERCASE","Concatenation of STUDYID and DM.SUBJID (This is a variable for internal system use)","Identifier used to uniquely identify a subject across all studies for all applications or submissions involving the product.","NN DEFINED","USUBJID","*",,"Y","Y",,,,,,,
,"APRS","RSGRPID","Group ID",130,"C",60,,"text",,,"Perm",,"Identifier",,,"UPPERCASE",,"Used to link together a block of related records within a subject in a domain.",,"__GRPID","Y",,"Y",,,,,,,,
,"APRS","RSREFID","Reference ID",140,"C",40,,"text",,,"Perm",,"Identifier",,,"UPPERCASE",,"Internal or external identifier.",,"__REFID","Y",,"Y",,,,,,,,
"Y","APRS","RSSPID","Sponsor-Defined Identifier",150,"C",40,,"text",,,"Perm","Assigned","Identifier",,,"UPPERCASE","Sponsor-defined identifier. Example: pre-printed line identifier on a Concomitant Medications page.","Sponsor-defined identifier. Example: pre-printed line identifier on a Concomitant Medications page.",,"__SPID","*",,"Y",,,,,,,,
,"APRS","RSLNKID","Link ID",160,"C",40,,"text",,,"Perm","Assigned","Identifier",,,"UPPERCASE",,"Used to link the response assessment to the appropriate measurement records (in TR) for same tumor that was used to determine the response result.",,"__LNKID","Y",,"Y",,,,,,,,
,"APRS","RSLNKGRP","Link Group",170,"C",40,,"text",,,"Perm","Assigned","Identifier",,,"UPPERCASE",,"Used to link the response assessment to the all of the measurement/assessment records in the TR domain which were used in the assessment of the response.",,"__LNKGRP","Y",,"Y",,,,,,,,
,"APRS","RSTESTCD","Response Assessment Short Name",180,"C",8,,"text","RSTESTCD","Y","Req","Assigned","Topic","(RSTESTCD)",,"UPPERCASE",,"Short name of the TEST in RSTEST. RSTESTCD cannot contain characters other than letters, numbers, or underscores. Examples: TRGRESP, NTRGRESP, OVRRESP, BESTRESP, NRADPROG",,"__TESTCD","Y",,"Y",,,,,,,,
,"APRS","RSTEST","Response Assessment Name",190,"C",40,,"text","RSTEST","Y","Req","Assigned","SynonymQualifier","(RSTEST)",,"MIXEDCASE",,"Verbatim name of the response assessment. The value in RSTEST cannot be longer than 40 characters. Examples: Target Response, Non-target Response, Overall Response, Best Overall Response, Non-radiological progression (i.e. Symptomatic deterioration)",,"__TEST","Y",,"Y",,,,,,,,
,"APRS","RSCAT","Category for Response Assessment",200,"C",60,,"text","CCCAT",,"Exp","Assigned","GroupingQualifier","*",,"UPPERCASE",,"RSCAT is used to identify the criteria used in the assessment of response and a version number if appropriate",,"__CAT","Y","src.cat","Y",,,,,,,,
,"APRS","RSSCAT","Subcategory",210,"C",60,,"text",,,"Perm",,"GroupingQualifier","*",,"UPPERCASE",,"Used to define a further categorization of --CAT values. Example: DIFFERENTIAL.","FINDINGS","__SCAT","Y","src.sub_cat","Y",,,,,,,,
,"APRS","RSORRES","Response Assessment Original Result",220,"C",200,,"text",,,"Exp",,"ResultQualifier",,,"UPPERCASE",,"Result of the Response assessment as originally received, collected, or calculated.",,"__ORRES","Y",,"Y",,,,,,,,
,"APRS","RSORRESU","Original Units",230,"C",40,,"text","UNIT",,"Perm",,"VariableQualifier","(UNIT)",,"MIXEDCASE",,"Original units in which the data were collected. Unit for RSORRES.","FINDINGS","__ORRESU","Y",,"Y",,,,,,,,
,"APRS","RSSTRESC","Response Assessment Result in Std Format",240,"C",200,,"text",,,"Exp",,"RecordQualifier",,,"UPPERCASE",,"Contains the result value for the response assessment, copied or derived from RSORRES in a standard format or standard units. RSSTRESC should store all results or findings in character format;",,"__STRESC","Y",,"Y",,,,,,40,"sdtme_std_stres_v$$",
,"APRS","RSSTRESN","Numeric Result/Finding in Standard Units",250,"N",8,8.3,"float",,,"Perm","Derived","ResultQualifier",,"!!!",,,"Used for continuous or numeric results or findings in standard format; copied in numeric format from RSSTRESC. RSSTRESN should store all numeric test results or findings.",,"__STRESN",,,,,,,,,40,"sdtme_std_stres_v$$",
,"APRS","RSSTRESU","Standard Units",260,"C",40,,"text","UNIT",,"Perm","Assigned","VariableQualifier","(UNIT)",,"MIXEDCASE",,"Standardized unit used for RSSTRESC and RSSTRESN.",,"__STRESU",,,,,,,,,39,"sdtme_std_stresu_v$$",
,"APRS","RSSTAT","Completion Status",270,"C",40,,"text","ND",,"Perm","Derived","ResultQualifier","(ND)","Set to NOT DONE if 'ND', 'NA', 'NK' ,' ' have been reported on CRF","UPPERCASE",,"Used to indicate the response assessment was not performed. Should be Null if a result exists in RSORRES.",,"__STAT","Y",,"Y",,,,,,,,
,"APRS","RSREASND","Reason Response Assessment Not Performed",280,"C",200,,"text",,,"Perm",,"RecordQualifier",,,"UPPERCASE",,"Describes why a response assessment was not performed. Examples: All target tumors not evaluated, Subject does not have non-target tumors. Used in conjunction with TRSTAT when value is NOT DONE.",,"__REASND","Y",,"Y",,,,,,,,
,"APRS","RSNAM","Vendor Name",290,"C",40,,"text",,,"Perm",,"RecordQualifier",,,"UPPERCASE",,"The name or identifier of the vendor that performed the response assessment. This column can be left Null when the Investigator provides the complete set of data in the domain.",,"__NAM","Y",,"Y",,,,,,,,
,"APRS","RSEVAL","Evaluator",300,"C",40,,"text","EVAL",,"Exp",,"RecordQualifier","(EVAL)",,"UPPERCASE",,"Role of the person who provided the evaluation. Examples: INVESTIGATOR, INDEPENDENT ASSESSOR. This column can be left Null when the Investigator provides the complete set of data in the domain. However the column should contain no Null values when data from one or more independent assessors is included meaning that the rows attributed to the Investigator should contain a value of INVESTIGATOR.",,"__EVAL","Y",,"Y",,,,,,,,
,"APRS","RSEVALID","Evaluator Identifier",310,"C",40,,"text","MEDEVAL",,"Perm",,"VariableQualifier","(MEDEVAL)",,"UPPERCASE",,"The Evaluator Specified variable is used in conjunction with RSEVAL to provide an additional level of detail. When multiple assessors play the role identified in RSEVAL, values of RSEVALID will attribute a row of data to a particular assessor. RSEVALID should not contain the names of the assessors, or a code identifier for a specific assessor. The RSEVALID variable is subject to CDISC Controlled Terminology. Examples: RADIOLOGIST, RADIOLOGIST 1 or RADIOLOGIST 2. See Assumption 4",,"__EVALID","Y",,"Y",,,,,,,,
,"APRS","RSACPTFL","Accepted Record Flag",320,"C",2,,"text","NY",,"Perm",,"RecordQualifier","(NY)",,"UPPERCASE",,"In cases where more than one independent assessor (e.g. RADIOLOGIST 1, RADIOLOGIST 2, ADJUDICATOR) provides an evaluation of response this flag identifies the record that is considered to be the accepted evaluation.",,"__ACPTFL",,,,,,,,,,,
,"APRS","RSREPNUM","Repetition Number",330,"N",8,,"integer",,,"Perm",,"RecordQualifier",,,,,"The incidence number of a test that is repeated within a given timeframe for the same test. The level of granularity can vary, e.g., within a time point or within a visit. For example, multiple measurements of blood pressure or multiple analyses of a sample.","FINDINGS","__REPNUM","Y",,"Y",,,,,,,,
,"APRS","ETCD","Element Code",340,"C",8,,"text",,,"Req","Assigned","RecordQualifier","*",,"UPPERCASE","Set based on the SE domain","ETCD (the companion to ELEMENT) is limited to 8 characters and does not have special character restrictions. These values should be short for ease of use in programming, but it is not expected that ETCD will need to serve as a variable name.","NN DEFINED","ETCD",,,,,,,,,60,"sdtme_std_etcd_v$$",
,"APRS","ELEMENT","Description of Element",350,"C",40,,"text",,,"Req","Protocol","RecordQualifier","*",,"UPPERCASE","Set based on the SE domain","The name of the Element.","NN DEFINED","ELEMENT",,,,,,,,,60,"sdtme_std_etcd_v$$",
,"APRS","VISITNUM","Visit Number",360,"N",8,8.1,"float",,,"Exp","Protocol","Timing",,,,,"1. Clinical encounter number. 2. Numeric version of VISIT, used for sorting.",,"VISITNUM",,"src.vis_id","Y",,,,,,,,
,"APRS","VISIT","Visit Name",370,"C",40,,"text",,,"Perm","Protocol","Timing",,,"UPPERCASE",,"1. Protocol-defined description of clinical encounter. 2. May be used in addition to VISITNUM and/or VISITDY.",,"VISIT",,,,,,,,,20,"sdtme_std_visit_v$$",
,"APRS","VISITDY","Planned Study Day of Visit",380,"N",8,,"integer",,,"Perm","Assigned","Timing",,,,"Based on TV.VISITDY",,,"VISITDY",,,,,,,,,30,"sdtme_std_visitdy_v$$",
,"APRS","EPOCH","Epoch",390,"C",40,,"text","EPOCH",,"Perm","Protocol","Timing","(EPOCH)",,"UPPERCASE","Set based on the SE domain","Epoch associated with the Element in the planned sequence of Elements for the ARM to which the subject was assigned","TIMING","EPOCH",,,,,,,,,50,"sdtme_std_epoch_v$$",
,"APRS","RSDTC","Date/Time of Response Assessment",400,"C",64,,"datetime",,,"Exp",,"Timing","ISO 8601",,"UPPERCASE DATETIME",,"RSDTC may be derived from the dates of scans/images/physical exams which may be performed on different dates. However, if all assessments are performed on the same date, RSDTC may be consistent with the TUDTC and TRDTC. Note the physical exam date may correspond to the visit date.",,"__DTC","Y",,"Y",,,,,,,,
,"APRS","RSDY","Study Day of Response Assessment",410,"N",8,,"integer",,,"Perm","Derived","Timing",,"Calculation: = RSDTC - RFSTDTC+1 if RSDTC is on or after RFSTDTC,RSDTC - RFSTDTC if RSDTC precedes RFSTDTC",,,"1. Study day of the response assessment, measured as integer days. 2. Algorithm for calculations must be relative to the sponsor-defined RFSTDTC variable in Demographics.",,"__DY",,,,,,,,,10,"sdtme_std_dy_v$$",
,"APRS","RSTPT","Planned Time Point Name",420,"C",80,,"text",,,"Perm",,"Timing",,,"UPPERCASE",,"Text description of time when a measurement or observation should be taken as defined in the protocol. This may be represented as an elapsed time relative to a fixed reference point, such as time of last dose. See --TPTNUM and -- TPTREF.","TIMING","__TPT","Y",,"Y",,,,,,,,
,"APRS","RSTPTNUM","Planned Time Point Number",430,"N",8,8.1,"float",,,"Perm",,"Timing",,,,,"Numeric version of planned time point used in sorting.","TIMING","__TPTNUM","Y",,"Y",,,,,,,,
,"APRS","RSELTM","Planned Elapsed Time from Time Point Ref",440,"C",64,,"text",,,"Perm",,"Timing","ISO 8601",,"UPPERCASE DURATION",,"Planned Elapsed time in ISO 8601 character format relative to a planned fixed reference (--TPTREF) such as ""Previous Dose"" or ""Previous Meal"". This variable is useful where there are repetitive measures. Not a clock time or a date/time variable, but an interval, represented as ISO duration.","TIMING","__ELTM","Y",,"Y",,,,,,,,
,"APRS","RSTPTREF","Time Point Reference",450,"C",40,,"text",,,"Perm",,"Timing",,,"UPPERCASE",,"Description of the fixed reference point referred to by --ELTM, --TPTNUM, and --TPT. Examples: PREVIOUS DOSE, PREVIOUS MEAL.","TIMING","__TPTREF","Y",,"Y",,,,,,,,
,"APRS","RSRFTDTC","Date/Time of Reference Time Point",460,"C",64,,"datetime",,,"Perm",,"Timing","ISO 8601",,"UPPERCASE DATETIME",,"Date/time for a fixed reference time point defined by --TPTREF in ISO 8601 character format.","TIMING","__RFTDTC","Y",,"Y",,,,,,,,
,"APSC","SRC_FIND_COLL_UNIT","CDW SRC Finding Collection Unit",10,"C",80,,"text",,,"Perm",,"RecordQualifier",,,,,,"NN DEFINED","SRC_FIND_COLL_UNIT",,"src.find_coll_unit","Y","Y",,,,,,,
,"APSC","TOPIC_CD","CDW Topic Code",20,"C",80,,"text",,,"Perm",,"Topic",,,,,,"NN DEFINED","TOPIC_CD",,"src.topic_cd","Y","Y",,,,,,,
"Y","APSC","STUDYID","Study Identifier",30,"C",40,,"text",,,"Req","Protocol","Identifier",,,"UPPERCASE",,"Unique identifier for a study.",,"STUDYID","*",,"Y",,,,,,,,
"Y","APSC","DOMAIN","Domain Abbreviation",40,"C",8,,"text",,,"Req","Assigned","Identifier",,,"UPPERCASE",,"Four-character abbreviation for the domain, AP--.",,"DOMAIN","*",,"Y",,,,,,,,
"Y","APSC","APID","Associated Persons Identifier",50,"C",60,,"text",,,"Req",,"Identifier",,,"UPPERCASE",,"Identifier for a single associated person, a group of associated persons, or a pool of associated persons. If APID identifies a pool, POOLDEF records must exist for each associated person.",,"APID","Y",,"Y",,,,,,,,
,"APSC","SPDEVID","Sponsor Device Identifier",60,"C",40,,"text",,,"Perm","Assigned","Identifier",,,"UPPERCASE",,"Sponsor-defined identifier for a device","IDENTIFIERS","SPDEVID","Y",,"Y",,,,,,,,
,"APSC","APSCSPID","Sponsor-Defined Identifier",70,"C",40,,"text",,,"Perm","Assigned","Identifier",,,"UPPERCASE","System generated unique identifier, required for Enriched SDTM generation.",,"IDENTIFIERS","__SPID","*",,"Y","Y",,,,,,,
"Y","APSC","SCSEQ","Sequence Number",80,"N",8,,"integer",,,"Req","Assigned","Identifier",,,,,"Sequence number to ensure uniqueness of records within a domain for associated persons. Unique within APID within the domain.",,"__SEQ","*",,"Y",,,,,,,,
"Y","APSC","RSUBJID","Related Subject",90,"C",60,,"text",,,"Exp",,"Identifier",,,"UPPERCASE",,"Identifier for a related study subject or pool of study subjects. The subject(s) may be human or animal. RSUBJID will be populated with the USUBJID of the related subject or the POOLID of the related pool. RSUBJID will be null for data about associated persons who are related to the study but not to any of the study subjects.",,"RSUBJID","Y",,"Y",,,,,,,,
"Y","APSC","RDEVID","Related Device",100,"C",40,,"text",,,"Perm",,"RecordQualifier",,,"UPPERCASE",,"Identifier for a related device. RDEVID will be populated with the SPDEVID of the related device.",,"RDEVID","Y",,"Y",,,,,,,,
"Y","APSC","SREL","Subject, Device, or Study Relationship",110,"C",40,,"text","RELSUB",,"Req",,"RecordQualifier","(RELSUB)",,"UPPERCASE",,"If RSUBJID is populated, describes the relationship of the associated person(s) identified in APID to the subject or pool identified in RSUBJID. If RDEVID is populated, describes the relationship of the associated person(s) identified in APID to the device identified in RDEVID. If RSUBJID and RDEVID are null, SREL describes the relationship of the associated person(s) identified in APID to the study identified in STUDYID.",,"SREL","Y",,"Y",,,,,,,,
,"APSC","USUBJID","Unique Subject Identifier",120,"C",60,,"text",,,"Req","Assigned","Identifier",,,"UPPERCASE","Concatenation of STUDYID and DM.SUBJID","Identifier used to uniquely identify a subject across all studies for all applications or submissions involving the product.",,"USUBJID","*",,"Y",,,,,,,,
,"APSC","SCGRPID","Group ID",130,"C",60,,"text",,,"Perm",,"Identifier",,,"UPPERCASE",,"Used to tie together a block of related records in a single domain for a subject.",,"__GRPID","Y",,"Y",,,,,,,,
"Y","APSC","SCSPID","Sponsor-Defined Identifier",140,"C",40,,"text",,,"Perm","Assigned","Identifier",,,"UPPERCASE","Sponsor-defined identifier. Example: pre-printed line identifier on a Concomitant Medications page.","Sponsor-defined identifier. Example: pre-printed line identifier on a Concomitant Medications page.",,"__SPID","*",,"Y",,,,,,,,
,"APSC","SCLNKID","Link ID",150,"C",40,,"text",,,"Perm",,"Identifier",,,"UPPERCASE",,"Identifier used to link related records across domains. This may be a one-to- one or a one-to-many relationship. For Example: A single tumor may have multiple measurements/assessments performed at each study visit.","IDENTIFIERS","__LNKID","Y",,"Y",,,,,,,,
,"APSC","SCLNKGRP","Link Group ID",160,"C",40,,"text",,,"Perm","Assigned","Identifier",,,"UPPERCASE",,"Identifier used to link related records across domains. This will usually be a many-to-one relationship. For example: Multiple tumor measurements/assessments will contribute to a single response to therapy determination record.","IDENTIFIERS","__LNKGRP","Y",,"Y",,,,,,,,
,"APSC","SCTESTCD","Subject Characteristic Short Name",170,"C",8,,"text","SCTESTCD",,"Req","Assigned","Topic","(SCTESTCD)",,"UPPERCASE",,"Short name of the measurement, test, or examination described in SCTEST. It can be used as a column name when converting a dataset from a vertical to a horizontal format. The value in SCTESTCD cannot be longer than 8 characters, nor can it start with a number (e.g.""1TEST""). SCTESTCD cannot contain characters other than letters, numbers, or underscores. Example: MARISTAT, NATORIG.",,"__TESTCD","Y",,"Y",,,,,,,,
,"APSC","SCTEST","Subject Characteristic",180,"C",40,,"text","SCTEST",,"Req","Assigned","SynonymQualifier","(SCTEST)",,"MIXEDCASE",,"Verbatim name of the test or examination used to obtain the measurement or finding. The value in SCTEST cannot be longer than 40 characters. Examples: Marital Status, National Origin.",,"__TEST","Y",,"Y",,,,,,,,
,"APSC","SCCAT","Category for Subject Characteristic",190,"C",60,,"text",,,"Perm","Assigned","GroupingQualifier","*",,"UPPERCASE",,"Used to define a category of related records.",,"__CAT","Y","src.cat","Y",,,,,,,,
,"APSC","SCSCAT","Subcategory for Subject Characteristic",200,"C",60,,"text",,,"Perm","Assigned","GroupingQualifier","*",,"UPPERCASE",,"A further categorization of the subject characteristic.",,"__SCAT","Y","src.sub_cat","Y",,,,,,,,
,"APSC","SCORRES","Result or Finding in Original Units",210,"C",200,,"text",,,"Exp",,"ResultQualifier",,,"UPPERCASE",,"Result of the subject characteristic as originally received or collected.",,"__ORRES","Y",,"Y",,,,,,,,
,"APSC","SCORRESU","Original Units",220,"C",40,,"text","UNIT",,"Perm",,"VariableQualifier","(UNIT)",,"MIXEDCASE",,"Original Unit in which the data were collected. The unit for SCORRES.",,"__ORRESU","Y",,"Y",,,,,,,,
,"APSC","SCSTRESC","Character Result/Finding in Std Format",230,"C",200,,"text",,,"Exp",,"ResultQualifier",,,"UPPERCASE",,"Contains the result value for all findings, copied or derived from SCORRES in a standard format or standard units. SCSTRESC should store all results or findings in character format; if results are numeric, they should also be stored in numeric format in SCSTRESN. For example, if a test has results ""NONE"", ""NEG"", and ""NEGATIVE"" in SCORRES and these results effectively have the same meaning, they could be represented in standard format in SCSTRESC as ""NEGATIVE"".",,"__STRESC","Y",,"Y",,,,,,50,"sdtme_std_stres_v$$",
,"APSC","SCSTRESN","Numeric Result/Finding in Standard Units",240,"N",8,8.3,"float",,,"Perm",,"ResultQualifier",,,,,"Used for continuous or numeric results or findings in standard format; copied in numeric format from SCSTRESC. SCSTRESN should store all numeric test results or findings.",,"__STRESN",,,,,,,,,50,"sdtme_std_stres_v$$",
,"APSC","SCSTRESU","Standard Units",250,"C",40,,"text","UNIT",,"Perm",,"VariableQualifier","(UNIT)",,"MIXEDCASE",,"Standardized unit used for SCSTRESC or SCSTRESN.",,"__STRESU",,,,,,,,,40,"sdtme_std_stresu_v$$",
,"APSC","SCSTAT","Completion Status",260,"C",40,,"text","ND",,"Perm","Derived","RecordQualifier","(ND)","Set to NOT DONE if 'ND', 'NA', 'NK' ,' ' have been reported on CRF","UPPERCASE",,"Used to indicate that the measurement was not done. Should be null if a result exists in SCORRES.",,"__STAT","Y",,"Y",,,,,,,,
,"APSC","SCREASND","Reason Not Performed",270,"C",200,,"text",,,"Perm",,"RecordQualifier",,,"UPPERCASE",,"Describes why the observation has no result. Example: subject refused. Used in conjunction with SCSTAT when value is NOT DONE.",,"__REASND","Y",,"Y",,,,,,,,
,"APSC","SCEVAL","Evaluator",280,"C",40,,"text","EVAL",,"Perm",,"RecordQualifier","(EVAL)",,"UPPERCASE",,"Role of the person who provided the evaluation. Used only for results that are subjective (e.g., assigned by a person or a group). Examples: ADJUDICATION COMMITTEE, INDEPENDENT ASSESSOR, RADIOLOGIST.","FINDINGS","__EVAL","Y",,"Y",,,,,,,,
,"APSC","SCEVALID","Evaluator Identifier",290,"C",40,,"text","MEDEVAL",,"Perm",,"VariableQualifier","(MEDEVAL)",,"UPPERCASE",,"Used to distinguish multiple evaluators with the same role recorded in --EVAL. Examples: RADIOLOGIST1 or RADIOLOGIST2","FINDINGS","__EVALID","Y",,"Y",,,,,,,,
,"APSC","SCREPNUM","Repetition Number",300,"N",8,,"integer",,,"Perm",,"RecordQualifier",,,,,"The incidence number of a test that is repeated within a given timeframe for the same test. The level of granularity can vary, e.g., within a time point or within a visit. For example, multiple measurements of blood pressure or multiple analyses of a sample.","FINDINGS","__REPNUM","Y",,"Y",,,,,,,,
,"APSC","ETCD","Element Code",310,"C",8,,"text",,,"Req","Assigned","RecordQualifier","*",,"UPPERCASE","Set based on the SE domain","ETCD (the companion to ELEMENT) is limited to 8 characters and does not have special character restrictions. These values should be short for ease of use in programming, but it is not expected that ETCD will need to serve as a variable name.","NN DEFINED","ETCD",,,,,,,,,30,"sdtme_std_etcd_v$$",
,"APSC","ELEMENT","Description of Element",320,"C",40,,"text",,,"Req","Protocol","RecordQualifier","*",,"UPPERCASE","Set based on the SE domain","The name of the Element.","NN DEFINED","ELEMENT",,,,,,,,,30,"sdtme_std_etcd_v$$",
,"APSC","EPOCH","Epoch",330,"C",40,,"text","EPOCH",,"Perm","Protocol","Timing","(EPOCH)",,"UPPERCASE","Set based on the SE domain","Epoch associated with the start date/time of the observation, or the date/time of collection if start date/time is not collected. (See Section 3.2.2).","TIMING","EPOCH",,,,,,,,,20,"sdtme_std_epoch_v$$",
,"APSC","SCDTC","Date/Time of Collection",340,"C",64,,"datetime",,,"Perm",,"Timing","ISO 8601",,"UPPERCASE DATETIME",,,,"__DTC","Y",,"Y",,,,,,,,
,"APSC","SCDY","Study Day of Examination",350,"N",8,,"integer",,,"Perm","Derived","Timing",,"Calculation: = SCDTC - RFSTDTC+1 if SCDTC is on or after RFSTDTC,SCDTC - RFSTDTC if SCDTC precedes RFSTDTC",,,"1. Study day of collection, measured as integer days. 2. Algorithm for calculations must be relative to the sponsor-defined RFSTDTC variable in Demographics.",,"__DY",,,,,,,,,10,"sdtme_std_dy_v$$",
,"APVS","CDMS_SUB_EVT_NUM","CDMS Repeat Sequence Number",10,"N",8,,"integer",,,"Perm",,"RecordQualifier",,,,,,"NN DEFINED","CDMS_SUB_EVT_NUM",,"src.cdms_sub_evt_num","Y","Y",,,,,,,
,"APVS","SRC_FIND_COLL_UNIT","CDW SRC Finding Collection Unit",20,"C",80,,"text",,,"Perm",,"RecordQualifier",,,,,,"NN DEFINED","SRC_FIND_COLL_UNIT",,"src.find_coll_unit","Y","Y",,,,,,,
,"APVS","TOPIC_CD","CDW Topic Code",30,"C",80,,"text",,,"Perm",,"Topic",,,,,,"NN DEFINED","TOPIC_CD",,"src.topic_cd","Y","Y",,,,,,,
"Y","APVS","STUDYID","Study Identifier",40,"C",40,,"text",,,"Req","Protocol","Identifier",,,"UPPERCASE",,"Unique identifier for a study.",,"STUDYID","*",,"Y",,,,,,,,
"Y","APVS","DOMAIN","Domain Abbreviation",50,"C",8,,"text",,,"Req","Assigned","Identifier",,,"UPPERCASE",,"Four-character abbreviation for the domain, AP--.",,"DOMAIN","*",,"Y",,,,,,,,
"Y","APVS","APID","Associated Persons Identifier",60,"C",60,,"text",,,"Req",,"Identifier",,,"UPPERCASE",,"Identifier for a single associated person, a group of associated persons, or a pool of associated persons. If APID identifies a pool, POOLDEF records must exist for each associated person.",,"APID","Y",,"Y",,,,,,,,
"Y","APVS","VSSEQ","Sequence Number",70,"N",8,,"integer",,,"Req","Assigned","Identifier",,,,,"Sequence number to ensure uniqueness of records within a domain for associated persons. Unique within APID within the domain.",,"__SEQ","*",,"Y",,,,,,,,
"Y","APVS","RSUBJID","Related Subject",80,"C",60,,"text",,,"Exp",,"Identifier",,,"UPPERCASE",,"Identifier for a related study subject or pool of study subjects. The subject(s) may be human or animal. RSUBJID will be populated with the USUBJID of the related subject or the POOLID of the related pool. RSUBJID will be null for data about associated persons who are related to the study but not to any of the study subjects.",,"RSUBJID","Y",,"Y",,,,,,,,
"Y","APVS","RDEVID","Related Device",90,"C",40,,"text",,,"Perm",,"RecordQualifier",,,"UPPERCASE",,"Identifier for a related device. RDEVID will be populated with the SPDEVID of the related device.",,"RDEVID","Y",,"Y",,,,,,,,
"Y","APVS","SREL","Subject, Device, or Study Relationship",100,"C",40,,"text","RELSUB",,"Req",,"RecordQualifier","(RELSUB)",,"UPPERCASE",,"If RSUBJID is populated, describes the relationship of the associated person(s) identified in APID to the subject or pool identified in RSUBJID. If RDEVID is populated, describes the relationship of the associated person(s) identified in APID to the device identified in RDEVID. If RSUBJID and RDEVID are null, SREL describes the relationship of the associated person(s) identified in APID to the study identified in STUDYID.",,"SREL","Y",,"Y",,,,,,,,
,"APVS","USUBJID","Unique Subject Identifier",110,"C",60,,"text",,,"Req","Assigned","Identifier",,,"UPPERCASE","Concatenation of STUDYID and DM.SUBJID (This is a variable for internal system use)","Identifier used to uniquely identify a subject across all studies for all applications or submissions involving the product.","NN DEFINED","USUBJID","*",,"Y","Y",,,,,,,
,"APVS","APVSSPID","Sponsor-Defined Identifier",120,"C",40,,"text",,,"Perm","Assigned","Identifier",,,"UPPERCASE","System generated unique identifier, required for Enriched SDTM generation.",,"IDENTIFIERS","__SPID","*",,"Y","Y",,,,,,,
,"APVS","VSGRPID","Group ID",130,"C",60,,"text",,,"Perm",,"Identifier",,,"UPPERCASE",,"Used to tie together a block of related records in a single domain for a subject.",,"__GRPID","Y",,"Y",,,,,,,,
,"APVS","VSREFID","Reference ID",140,"C",40,,"text",,,"Perm",,"Identifier",,,"UPPERCASE",,,,"__REFID","Y",,"Y",,,,,,,,
"Y","APVS","VSSPID","Sponsor-Defined Identifier",150,"C",40,,"text",,,"Perm","Assigned","Identifier",,,"UPPERCASE","Sponsor-defined identifier. Example: pre-printed line identifier on a Concomitant Medications page.","Sponsor-defined identifier. Example: pre-printed line identifier on a Concomitant Medications page.",,"__SPID","*",,"Y",,,,,,,,
,"APVS","VSLNKID","Link ID",160,"C",40,,"text",,,"Perm",,"Identifier",,,"UPPERCASE",,"Identifier used to link related records across domains. This may be a one-to- one or a one-to-many relationship. For Example: A single tumor may have multiple measurements/assessments performed at each study visit.","IDENTIFIERS","__LNKID","Y",,"Y",,,,,,,,
,"APVS","VSLNKGRP","Link Group ID",170,"C",40,,"text",,,"Perm","Assigned","Identifier",,,"UPPERCASE",,"Identifier used to link related records across domains. This will usually be a many-to-one relationship. For example: Multiple tumor measurements/assessments will contribute to a single response to therapy determination record.","IDENTIFIERS","__LNKGRP","Y",,"Y",,,,,,,,
,"APVS","VSTESTCD","Vital Signs Test Short Name",180,"C",8,,"text","VSTESTCD",,"Req","Assigned","Topic","(VSTESTCD)",,"UPPERCASE",,"Short name of the measurement, test, or examination described in VSTEST. It can be used as a column name when converting a dataset from a vertical to a horizontal format. The value in VSTESTCD cannot be longer than 8 characters, nor can it start with a number (e.g.""1TEST""). VSTESTCD cannot contain characters other than letters, numbers, or underscores. Examples: SYSBP, DIABP, BMI.",,"__TESTCD","Y",,"Y",,,,,,,,
,"APVS","VSTEST","Vital Signs Test Name",190,"C",40,,"text","VSTEST",,"Req","Assigned","SynonymQualifier","(VSTEST)",,"MIXEDCASE",,"Verbatim name of the test or examination used to obtain the measurement or finding. The value in VSTEST cannot be longer than 40 characters. Examples: Systolic Blood Pressure, Diastolic Blood Pressure, Body Mass Index.",,"__TEST","Y",,"Y",,,,,,,,
,"APVS","VSCAT","Category for Vital Signs",200,"C",60,,"text","VSCAT",,"Perm","Assigned","GroupingQualifier","*",,"UPPERCASE",,"Used to define a category of related records.",,"__CAT","Y","src.cat","Y",,,,,,,,
,"APVS","VSSCAT","Subcategory for Vital Signs",210,"C",60,,"text",,,"Perm","Assigned","GroupingQualifier","*",,"UPPERCASE",,"A further categorization of a measurement or examination.",,"__SCAT","Y","src.sub_cat","Y",,,,,,,,
,"APVS","VSPOS","Vital Signs Position of Subject",220,"C",40,,"text","POSITION",,"Perm","Assigned","RecordQualifier","(POSITION)",,"UPPERCASE",,"Position of the subject during a measurement or examination. Examples: SUPINE, STANDING, SITTING.",,"__POS","Y",,"Y",,,,,,,,
,"APVS","VSORRES","Result or Finding in Original Units",230,"C",200,,"text",,,"Exp","CRF","ResultQualifier",,,"UPPERCASE",,"Result of the vital signs measurement as originally received or collected.",,"__ORRES","Y",,"Y",,"VSTESTCD","VSTEST",,"CATGO_CT",,,
,"APVS","VSORRESU","Original Units",240,"C",40,,"text","VSRESU",,"Exp","CRF","VariableQualifier","(VSRESU)",,"MIXEDCASE",,"Original units in which the data were collected. The unit for VSORRES. Examples: IN, LB, BEATS/MIN.",,"__ORRESU","Y",,"Y",,"VSTESTCD","VSTEST","Y",,,,
,"APVS","VSSTRESC","Character Result/Finding in Std Format",250,"C",200,,"text",,,"Exp","Derived","ResultQualifier",,"VSORRES converted into standard unit","UPPERCASE",,"Contains the result value for all findings, copied or derived from VSORRES in a standard format or standard units. VSSTRESC should store all results or findings in character format; if results are numeric, they should also be stored in numeric format in VSSTRESN. For example, if a test has results ""NONE"", ""NEG"", and ""NEGATIVE"" in VSORRES and these results effectively have the same meaning, they could be represented in standard format in VSSTRESC as ""NEGATIVE"".",,"__STRESC","Y",,"Y",,,,,,50,"sdtme_std_stres_v$$",
,"APVS","VSSTRESN","Numeric Result/Finding in Standard Units",260,"N",8,8.3,"float",,,"Exp","Derived","ResultQualifier",,"VSORRES converted into standard unit",,,"Used for continuous or numeric results or findings in standard format; copied in numeric format from VSSTRESC. VSSTRESN should store all numeric test results or findings.",,"__STRESN","Y",,"Y",,,,,,50,"sdtme_std_stres_v$$",
,"APVS","VSSTRESU","Standard Units",270,"C",40,,"text","VSRESU",,"Exp","Assigned","VariableQualifier","(VSRESU)",,"MIXEDCASE",,"Standardized unit used for VSSTRESC and VSSTRESN.",,"__STRESU","Y",,"Y",,,,,,40,"sdtme_std_stresu_v$$",
,"APVS","VSSTAT","Completion Status",280,"C",40,,"text","ND",,"Perm","Derived","RecordQualifier","(ND)","Set to NOT DONE if 'ND', 'NA', 'NK' ,' ' have been reported on CRF","UPPERCASE",,"Used to indicate that a vital sign measurement was not done. Should be null if a result exists in VSORRES.",,"__STAT","Y",,"Y",,,,,,,,
,"APVS","VSREASND","Reason Not Performed",290,"C",200,,"text",,,"Perm","Derived","RecordQualifier",,"Set to NOT COLLECTED if VSSTAT is set to NOT DONE","UPPERCASE",,"Describes why a measurement or test was not performed. Examples: BROKEN EQUIPMENT or SUBJECT REFUSED. Used in conjunction with VSSTAT when value is NOT DONE.",,"__REASND","Y",,"Y",,,,,,,,
,"APVS","VSLOC","Location of Vital Signs Measurement",300,"C",100,,"text","LOC",,"Perm",,"RecordQualifier","(LOC)",,"UPPERCASE",,"Location relevant to the collection of Vital Signs measurement. Example: ARM for blood pressure.",,"__LOC","Y",,"Y",,,,,,,,
,"APVS","VSLAT","Laterality",310,"C",40,,"text","LAT",,"Perm",,"ResultQualifier","(LAT)",,"UPPERCASE",,"Qualifier for anatomical location or specimen further detailing laterality. Examples: RIGHT, LEFT, BILATERAL",,"__LAT","Y",,"Y",,,,,,,,
,"APVS","VSMETHOD","Method of Test or Examination",320,"C",80,,"text","METHOD",,"Perm",,"RecordQualifier","(METHOD)",,"UPPERCASE",,"Method of the test or examination. Examples: EIA (Enzyme Immunoassay), ELECTROPHORESIS, DIPSTICK","FINDINGS","__METHOD","Y",,"Y",,,,,,,,
,"APVS","VSBLFL","Baseline Flag",330,"C",2,,"text","NY",,"Exp","Derived","RecordQualifier","(NY)","Baseline flag set to Y when the assessment is collected at the visit marked as baseline in the trial flowchart","UPPERCASE",,"Indicator used to identify a baseline value. The value should be ""Y"" or null.",,"__BLFL",,,,,,,,,20,"sdtme_std_blfl_v$$","Y"
