[
    {
        "name": "Test getting empty list of odm items",
        "request": {
            "headers": {},
            "method": "GET",
            "request": {},
            "url": "concepts/odms/items"
        },
        "response": {
            "code": 200,
            "headers": {
                "content-length": "2",
                "content-type": "application/json"
            },
            "result": {
                "items": [],
                "total": 0,
                "page": 1,
                "size": 0
            }
        }
    },
    {
        "name": "Test creating a new odm item",
        "request": {
            "headers": {},
            "method": "POST",
            "request": {
                "libraryName": "Sponsor",
                "name": "name1",
                "oid": "oid1",
                "prompt": "prompt1",
                "datatype": "datatype1",
                "length": 11,
                "significantDigits": 11,
                "sasFieldName": "sasFieldName1",
                "sdsVarName": "sdsVarName1",
                "origin": "origin1",
                "comment": "comment1",
                "descriptionUids": [
                    "odm_description1",
                    "odm_description2"
                ],
                "aliasUids": [
                    "odm_alias1"
                ],
                "unitDefinitions": [
                    {
                        "uid": "unit_definition_root1",
                        "mandatory": false,
                        "order": 1
                    }
                ],
                "codelistUid": "editable_cr",
                "terms": [
                    {
                        "uid": "term_root_final",
                        "mandatory": true,
                        "order": 1
                    }
                ]
            },
            "url": "concepts/odms/items/select"
        },
        "response": {
            "code": 201,
            "headers": {
                "content-length": "459",
                "content-type": "application/json"
            },
            "result": {
                "uid": "OdmItem_000001",
                "libraryName": "Sponsor",
                "name": "name1",
                "oid": "oid1",
                "prompt": "prompt1",
                "datatype": "datatype1",
                "length": 11,
                "significantDigits": 11,
                "sasFieldName": "sasFieldName1",
                "sdsVarName": "sdsVarName1",
                "origin": "origin1",
                "comment": "comment1",
                "startDate": "2022-03-03T11:17:56.799074",
                "endDate": null,
                "status": "Draft",
                "version": "0.1",
                "changeDescription": "Initial version",
                "userInitials": "TODO user initials",
                "descriptions": [
                    {
                        "uid": "odm_description1",
                        "name": "name1",
                        "language": "ENG",
                        "description": "description1",
                        "instruction": "instruction1",
                        "sponsorInstruction": "sponsorInstruction1",
                        "version": "0.1"
                    },
                    {
                        "uid": "odm_description2",
                        "name": "name2",
                        "language": "language2",
                        "description": "description2",
                        "instruction": "instruction2",
                        "sponsorInstruction": "sponsorInstruction2",
                        "version": "0.1"
                    }
                ],
                "aliases": [
                    {
                        "uid": "odm_alias1",
                        "context": "context1",
                        "name": "name1",
                        "version": "0.1"
                    }
                ],
                "unitDefinitions": [
                    {
                        "uid": "unit_definition_root1",
                        "name": "name1",
                        "mandatory": false,
                        "order": 1,
                        "ucum": {
                            "termUid": "term_root1_uid",
                            "name": "name1"
                        },
                        "ctUnits": [
                            {
                                "termUid": "C25532_name1",
                                "name": "name1"
                            }
                        ]
                    }
                ],
                "codelist": {
                    "uid": "editable_cr",
                    "name": "codelist attributes value1",
                    "submissionValue": "codelist submission value1",
                    "preferredTerm": "codelist preferred term"
                },
                "terms": [
                    {
                        "termUid": "term_root_final",
                        "name": "term_value_name1",
                        "mandatory": true,
                        "order": 1
                    }
                ],
                "activities": [],
                "xmlExtensionTags": [],
                "xmlExtensionAttributes": [],
                "xmlExtensionTagAttributes": [],
                "possibleActions": [
                    "approve",
                    "delete",
                    "edit"
                ]
            }
        }
    },
    {
        "name": "Test getting non empty list of odm items",
        "request": {
            "headers": {},
            "method": "GET",
            "request": {},
            "url": "concepts/odms/items"
        },
        "response": {
            "code": 200,
            "headers": {
                "content-length": "340",
                "content-type": "application/json"
            },
            "result": {
                "items": [
                    {
                        "uid": "OdmItem_000001",
                        "libraryName": "Sponsor",
                        "name": "name1",
                        "oid": "oid1",
                        "prompt": "prompt1",
                        "datatype": "datatype1",
                        "length": 11,
                        "significantDigits": 11,
                        "sasFieldName": "sasFieldName1",
                        "sdsVarName": "sdsVarName1",
                        "origin": "origin1",
                        "comment": "comment1",
                        "startDate": "2022-03-03T11:17:56.799074",
                        "endDate": null,
                        "status": "Draft",
                        "version": "0.1",
                        "changeDescription": "Initial version",
                        "userInitials": "TODO user initials",
                        "descriptions": [
                            {
                                "uid": "odm_description1",
                                "name": "name1",
                                "language": "ENG",
                                "description": "description1",
                                "instruction": "instruction1",
                                "sponsorInstruction": "sponsorInstruction1",
                                "version": "0.1"
                            },
                            {
                                "uid": "odm_description2",
                                "name": "name2",
                                "language": "language2",
                                "description": "description2",
                                "instruction": "instruction2",
                                "sponsorInstruction": "sponsorInstruction2",
                                "version": "0.1"
                            }
                        ],
                        "aliases": [
                            {
                                "uid": "odm_alias1",
                                "context": "context1",
                                "name": "name1",
                                "version": "0.1"
                            }
                        ],
                        "unitDefinitions": [
                            {
                                "uid": "unit_definition_root1",
                                "name": "name1",
                                "mandatory": false,
                                "order": 1,
                                "ucum": {
                                    "termUid": "term_root1_uid",
                                    "name": "name1"
                                },
                                "ctUnits": [
                                    {
                                        "termUid": "C25532_name1",
                                        "name": "name1"
                                    }
                                ]
                            }
                        ],
                        "codelist": {
                            "uid": "editable_cr",
                            "name": "codelist attributes value1",
                            "submissionValue": "codelist submission value1",
                            "preferredTerm": "codelist preferred term"
                        },
                        "terms": [
                            {
                                "termUid": "term_root_final",
                                "name": "term_value_name1",
                                "mandatory": true,
                                "order": 1
                            }
                        ],
                        "activities": [],
                        "xmlExtensionTags": [],
                        "xmlExtensionAttributes": [],
                        "xmlExtensionTagAttributes": [],
                        "possibleActions": [
                            "approve",
                            "delete",
                            "edit"
                        ]
                    }
                ],
                "total": 0,
                "page": 1,
                "size": 0
            }
        }
    },
    {
        "name": "Test getting possible header values of odm items",
        "request": {
            "headers": {},
            "method": "GET",
            "request": {},
            "url": "concepts/odms/items/headers?fieldName=name"
        },
        "response": {
            "code": 200,
            "headers": {
                "content-length": "340",
                "content-type": "application/json"
            },
            "result": [
                "name1"
            ]
        }
    },
    {
        "name": "Test getting a specific odm item",
        "request": {
            "headers": {},
            "method": "GET",
            "request": {},
            "url": "concepts/odms/items/OdmItem_000001"
        },
        "response": {
            "code": 200,
            "headers": {
                "content-length": "340",
                "content-type": "application/json"
            },
            "result": {
                "uid": "OdmItem_000001",
                "libraryName": "Sponsor",
                "name": "name1",
                "oid": "oid1",
                "prompt": "prompt1",
                "datatype": "datatype1",
                "length": 11,
                "significantDigits": 11,
                "sasFieldName": "sasFieldName1",
                "sdsVarName": "sdsVarName1",
                "origin": "origin1",
                "comment": "comment1",
                "startDate": "2022-03-03T11:17:56.799074",
                "endDate": null,
                "status": "Draft",
                "version": "0.1",
                "changeDescription": "Initial version",
                "userInitials": "TODO user initials",
                "descriptions": [
                    {
                        "uid": "odm_description1",
                        "name": "name1",
                        "language": "ENG",
                        "description": "description1",
                        "instruction": "instruction1",
                        "sponsorInstruction": "sponsorInstruction1",
                        "version": "0.1"
                    },
                    {
                        "uid": "odm_description2",
                        "name": "name2",
                        "language": "language2",
                        "description": "description2",
                        "instruction": "instruction2",
                        "sponsorInstruction": "sponsorInstruction2",
                        "version": "0.1"
                    }
                ],
                "aliases": [
                    {
                        "uid": "odm_alias1",
                        "context": "context1",
                        "name": "name1",
                        "version": "0.1"
                    }
                ],
                "unitDefinitions": [
                    {
                        "uid": "unit_definition_root1",
                        "name": "name1",
                        "mandatory": false,
                        "order": 1,
                        "ucum": {
                            "termUid": "term_root1_uid",
                            "name": "name1"
                        },
                        "ctUnits": [
                            {
                                "termUid": "C25532_name1",
                                "name": "name1"
                            }
                        ]
                    }
                ],
                "codelist": {
                    "uid": "editable_cr",
                    "name": "codelist attributes value1",
                    "submissionValue": "codelist submission value1",
                    "preferredTerm": "codelist preferred term"
                },
                "terms": [
                    {
                        "termUid": "term_root_final",
                        "name": "term_value_name1",
                        "mandatory": true,
                        "order": 1
                    }
                ],
                "activities": [],
                "xmlExtensionTags": [],
                "xmlExtensionAttributes": [],
                "xmlExtensionTagAttributes": [],
                "possibleActions": [
                    "approve",
                    "delete",
                    "edit"
                ]
            }
        }
    },
    {
        "name": "Test getting versions of a specific odm item",
        "request": {
            "headers": {},
            "method": "GET",
            "request": {},
            "url": "concepts/odms/items/OdmItem_000001/versions"
        },
        "response": {
            "code": 200,
            "headers": {
                "content-length": "340",
                "content-type": "application/json"
            },
            "result": [
                {
                    "uid": "OdmItem_000001",
                    "libraryName": "Sponsor",
                    "name": "name1",
                    "oid": "oid1",
                    "prompt": "prompt1",
                    "datatype": "datatype1",
                    "length": 11,
                    "significantDigits": 11,
                    "sasFieldName": "sasFieldName1",
                    "sdsVarName": "sdsVarName1",
                    "origin": "origin1",
                    "comment": "comment1",
                    "startDate": "2022-03-03T11:17:56.799074",
                    "endDate": null,
                    "status": "Draft",
                    "version": "0.1",
                    "changeDescription": "Initial version",
                    "userInitials": "TODO user initials",
                    "descriptions": [
                        {
                            "uid": "odm_description1",
                            "name": "name1",
                            "language": "ENG",
                            "description": "description1",
                            "instruction": "instruction1",
                            "sponsorInstruction": "sponsorInstruction1",
                            "version": "0.1"
                        },
                        {
                            "uid": "odm_description2",
                            "name": "name2",
                            "language": "language2",
                            "description": "description2",
                            "instruction": "instruction2",
                            "sponsorInstruction": "sponsorInstruction2",
                            "version": "0.1"
                        }
                    ],
                    "aliases": [
                        {
                            "uid": "odm_alias1",
                            "context": "context1",
                            "name": "name1",
                            "version": "0.1"
                        }
                    ],
                    "unitDefinitions": [
                        {
                            "uid": "unit_definition_root1",
                            "name": "name1",
                            "mandatory": false,
                            "order": 1,
                            "ucum": {
                                "termUid": "term_root1_uid",
                                "name": "name1"
                            },
                            "ctUnits": [
                                {
                                    "termUid": "C25532_name1",
                                    "name": "name1"
                                }
                            ]
                        }
                    ],
                    "codelist": {
                        "uid": "editable_cr",
                        "name": "codelist attributes value1",
                        "submissionValue": "codelist submission value1",
                        "preferredTerm": "codelist preferred term"
                    },
                    "terms": [
                        {
                            "termUid": "term_root_final",
                            "name": "term_value_name1",
                            "mandatory": true,
                            "order": 1
                        }
                    ],
                    "activities": [],
                    "xmlExtensionTags": [],
                    "xmlExtensionAttributes": [],
                    "xmlExtensionTagAttributes": [],
                    "possibleActions": [
                        "approve",
                        "delete",
                        "edit"
                    ]
                }
            ]
        }
    },
    {
        "name": "Test updating an existing odm item",
        "request": {
            "headers": {},
            "method": "PATCH",
            "request": {
                "libraryName": "Sponsor",
                "name": "name1",
                "oid": "oid1",
                "prompt": "prompt1",
                "datatype": "datatype1",
                "length": 11,
                "significantDigits": 11,
                "sasFieldName": "sasFieldName1",
                "sdsVarName": "sdsVarName1",
                "origin": "origin1",
                "comment": "new comment",
                "changeDescription": "comment added",
                "descriptionUids": [
                    "odm_description1",
                    "odm_description2"
                ],
                "aliasUids": [
                    "odm_alias1"
                ],
                "unitDefinitions": [
                    {
                        "uid": "unit_definition_root1",
                        "mandatory": false,
                        "order": 1
                    }
                ],
                "codelistUid": "editable_cr",
                "terms": [
                    {
                        "uid": "term_root_final",
                        "mandatory": true,
                        "order": 1
                    }
                ]
            },
            "url": "concepts/odms/items/OdmItem_000001/select"
        },
        "response": {
            "code": 200,
            "headers": {
                "content-length": "459",
                "content-type": "application/json"
            },
            "result": {
                "uid": "OdmItem_000001",
                "libraryName": "Sponsor",
                "name": "name1",
                "oid": "oid1",
                "prompt": "prompt1",
                "datatype": "datatype1",
                "length": 11,
                "significantDigits": 11,
                "sasFieldName": "sasFieldName1",
                "sdsVarName": "sdsVarName1",
                "origin": "origin1",
                "comment": "new comment",
                "startDate": "2022-03-03T11:17:56.799074",
                "endDate": null,
                "status": "Draft",
                "version": "0.2",
                "changeDescription": "comment added",
                "userInitials": "TODO user initials",
                "descriptions": [
                    {
                        "uid": "odm_description1",
                        "name": "name1",
                        "language": "ENG",
                        "description": "description1",
                        "instruction": "instruction1",
                        "sponsorInstruction": "sponsorInstruction1",
                        "version": "0.1"
                    },
                    {
                        "uid": "odm_description2",
                        "name": "name2",
                        "language": "language2",
                        "description": "description2",
                        "instruction": "instruction2",
                        "sponsorInstruction": "sponsorInstruction2",
                        "version": "0.1"
                    }
                ],
                "aliases": [
                    {
                        "uid": "odm_alias1",
                        "context": "context1",
                        "name": "name1",
                        "version": "0.1"
                    }
                ],
                "unitDefinitions": [
                    {
                        "uid": "unit_definition_root1",
                        "name": "name1",
                        "mandatory": false,
                        "order": 1,
                        "ucum": {
                            "termUid": "term_root1_uid",
                            "name": "name1"
                        },
                        "ctUnits": [
                            {
                                "termUid": "C25532_name1",
                                "name": "name1"
                            }
                        ]
                    }
                ],
                "codelist": {
                    "uid": "editable_cr",
                    "name": "codelist attributes value1",
                    "submissionValue": "codelist submission value1",
                    "preferredTerm": "codelist preferred term"
                },
                "terms": [
                    {
                        "termUid": "term_root_final",
                        "name": "term_value_name1",
                        "mandatory": true,
                        "order": 1
                    }
                ],
                "activities": [],
                "xmlExtensionTags": [],
                "xmlExtensionAttributes": [],
                "xmlExtensionTagAttributes": [],
                "possibleActions": [
                    "approve",
                    "delete",
                    "edit"
                ]
            }
        }
    },
    {
        "name": "Test approving an odm item",
        "request": {
            "headers": {},
            "method": "POST",
            "request": {},
            "url": "concepts/odms/items/OdmItem_000001/approve"
        },
        "response": {
            "code": 201,
            "headers": {
                "content-length": "459",
                "content-type": "application/json"
            },
            "result": {
                "uid": "OdmItem_000001",
                "libraryName": "Sponsor",
                "name": "name1",
                "oid": "oid1",
                "prompt": "prompt1",
                "datatype": "datatype1",
                "length": 11,
                "significantDigits": 11,
                "sasFieldName": "sasFieldName1",
                "sdsVarName": "sdsVarName1",
                "origin": "origin1",
                "comment": "new comment",
                "startDate": "2022-03-03T13:18:03.230000",
                "endDate": null,
                "status": "Final",
                "version": "1.0",
                "changeDescription": "Approved version",
                "userInitials": "TODO initials",
                "descriptions": [
                    {
                        "uid": "odm_description1",
                        "name": "name1",
                        "language": "ENG",
                        "description": "description1",
                        "instruction": "instruction1",
                        "sponsorInstruction": "sponsorInstruction1",
                        "version": "0.1"
                    },
                    {
                        "uid": "odm_description2",
                        "name": "name2",
                        "language": "language2",
                        "description": "description2",
                        "instruction": "instruction2",
                        "sponsorInstruction": "sponsorInstruction2",
                        "version": "0.1"
                    }
                ],
                "aliases": [
                    {
                        "uid": "odm_alias1",
                        "context": "context1",
                        "name": "name1",
                        "version": "0.1"
                    }
                ],
                "unitDefinitions": [
                    {
                        "uid": "unit_definition_root1",
                        "name": "name1",
                        "mandatory": false,
                        "order": 1,
                        "ucum": {
                            "termUid": "term_root1_uid",
                            "name": "name1"
                        },
                        "ctUnits": [
                            {
                                "termUid": "C25532_name1",
                                "name": "name1"
                            }
                        ]
                    }
                ],
                "codelist": {
                    "uid": "editable_cr",
                    "name": "codelist attributes value1",
                    "submissionValue": "codelist submission value1",
                    "preferredTerm": "codelist preferred term"
                },
                "terms": [
                    {
                        "termUid": "term_root_final",
                        "name": "term_value_name1",
                        "mandatory": true,
                        "order": 1
                    }
                ],
                "activities": [],
                "xmlExtensionTags": [],
                "xmlExtensionAttributes": [],
                "xmlExtensionTagAttributes": [],
                "possibleActions": [
                    "inactivate",
                    "newVersion"
                ]
            }
        }
    },
    {
        "name": "Test inactivating a specific odm item",
        "request": {
            "headers": {},
            "method": "POST",
            "request": {},
            "url": "concepts/odms/items/OdmItem_000001/inactivate"
        },
        "response": {
            "code": 201,
            "headers": {
                "content-length": "459",
                "content-type": "application/json"
            },
            "result": {
                "uid": "OdmItem_000001",
                "libraryName": "Sponsor",
                "name": "name1",
                "oid": "oid1",
                "prompt": "prompt1",
                "datatype": "datatype1",
                "length": 11,
                "significantDigits": 11,
                "sasFieldName": "sasFieldName1",
                "sdsVarName": "sdsVarName1",
                "origin": "origin1",
                "comment": "new comment",
                "startDate": "2022-03-03T13:18:03.230000",
                "endDate": null,
                "status": "Retired",
                "version": "1.0",
                "changeDescription": "Deactivated version",
                "userInitials": "TODO initials",
                "descriptions": [
                    {
                        "uid": "odm_description1",
                        "name": "name1",
                        "language": "ENG",
                        "description": "description1",
                        "instruction": "instruction1",
                        "sponsorInstruction": "sponsorInstruction1",
                        "version": "0.1"
                    },
                    {
                        "uid": "odm_description2",
                        "name": "name2",
                        "language": "language2",
                        "description": "description2",
                        "instruction": "instruction2",
                        "sponsorInstruction": "sponsorInstruction2",
                        "version": "0.1"
                    }
                ],
                "aliases": [
                    {
                        "uid": "odm_alias1",
                        "context": "context1",
                        "name": "name1",
                        "version": "0.1"
                    }
                ],
                "unitDefinitions": [
                    {
                        "uid": "unit_definition_root1",
                        "name": "name1",
                        "mandatory": false,
                        "order": 1,
                        "ucum": {
                            "termUid": "term_root1_uid",
                            "name": "name1"
                        },
                        "ctUnits": [
                            {
                                "termUid": "C25532_name1",
                                "name": "name1"
                            }
                        ]
                    }
                ],
                "codelist": {
                    "uid": "editable_cr",
                    "name": "codelist attributes value1",
                    "submissionValue": "codelist submission value1",
                    "preferredTerm": "codelist preferred term"
                },
                "terms": [
                    {
                        "termUid": "term_root_final",
                        "name": "term_value_name1",
                        "mandatory": true,
                        "order": 1
                    }
                ],
                "activities": [],
                "xmlExtensionTags": [],
                "xmlExtensionAttributes": [],
                "xmlExtensionTagAttributes": [],
                "possibleActions": [
                    "delete",
                    "reactivate"
                ]
            }
        }
    },
    {
        "name": "Test reactivating a specific odm item",
        "request": {
            "headers": {},
            "method": "POST",
            "request": {},
            "url": "concepts/odms/items/OdmItem_000001/reactivate"
        },
        "response": {
            "code": 201,
            "headers": {
                "content-length": "459",
                "content-type": "application/json"
            },
            "result": {
                "uid": "OdmItem_000001",
                "libraryName": "Sponsor",
                "name": "name1",
                "oid": "oid1",
                "prompt": "prompt1",
                "datatype": "datatype1",
                "length": 11,
                "significantDigits": 11,
                "sasFieldName": "sasFieldName1",
                "sdsVarName": "sdsVarName1",
                "origin": "origin1",
                "comment": "new comment",
                "startDate": "2022-03-03T13:18:03.230000",
                "endDate": null,
                "status": "Final",
                "version": "1.0",
                "changeDescription": "Reactivated version",
                "userInitials": "TODO initials",
                "descriptions": [
                    {
                        "uid": "odm_description1",
                        "name": "name1",
                        "language": "ENG",
                        "description": "description1",
                        "instruction": "instruction1",
                        "sponsorInstruction": "sponsorInstruction1",
                        "version": "0.1"
                    },
                    {
                        "uid": "odm_description2",
                        "name": "name2",
                        "language": "language2",
                        "description": "description2",
                        "instruction": "instruction2",
                        "sponsorInstruction": "sponsorInstruction2",
                        "version": "0.1"
                    }
                ],
                "aliases": [
                    {
                        "uid": "odm_alias1",
                        "context": "context1",
                        "name": "name1",
                        "version": "0.1"
                    }
                ],
                "unitDefinitions": [
                    {
                        "uid": "unit_definition_root1",
                        "name": "name1",
                        "mandatory": false,
                        "order": 1,
                        "ucum": {
                            "termUid": "term_root1_uid",
                            "name": "name1"
                        },
                        "ctUnits": [
                            {
                                "termUid": "C25532_name1",
                                "name": "name1"
                            }
                        ]
                    }
                ],
                "codelist": {
                    "uid": "editable_cr",
                    "name": "codelist attributes value1",
                    "submissionValue": "codelist submission value1",
                    "preferredTerm": "codelist preferred term"
                },
                "terms": [
                    {
                        "termUid": "term_root_final",
                        "name": "term_value_name1",
                        "mandatory": true,
                        "order": 1
                    }
                ],
                "activities": [],
                "xmlExtensionTags": [],
                "xmlExtensionAttributes": [],
                "xmlExtensionTagAttributes": [],
                "possibleActions": [
                    "inactivate",
                    "newVersion"
                ]
            }
        }
    },
    {
        "name": "Test adding activities to a specific odm item",
        "request": {
            "headers": {},
            "method": "POST",
            "request": [
                {
                    "uid": "activity_root1"
                }
            ],
            "url": "concepts/odms/items/OdmItem_000001/add-activities"
        },
        "response": {
            "code": 201,
            "headers": {
                "content-length": "459",
                "content-type": "application/json"
            },
            "result": {
                "uid": "OdmItem_000001",
                "libraryName": "Sponsor",
                "name": "name1",
                "oid": "oid1",
                "prompt": "prompt1",
                "datatype": "datatype1",
                "length": 11,
                "significantDigits": 11,
                "sasFieldName": "sasFieldName1",
                "sdsVarName": "sdsVarName1",
                "origin": "origin1",
                "comment": "new comment",
                "startDate": "2022-03-03T13:18:03.230000",
                "endDate": null,
                "status": "Final",
                "version": "1.0",
                "changeDescription": "Reactivated version",
                "userInitials": "TODO initials",
                "descriptions": [
                    {
                        "uid": "odm_description1",
                        "name": "name1",
                        "language": "ENG",
                        "description": "description1",
                        "instruction": "instruction1",
                        "sponsorInstruction": "sponsorInstruction1",
                        "version": "0.1"
                    },
                    {
                        "uid": "odm_description2",
                        "name": "name2",
                        "language": "language2",
                        "description": "description2",
                        "instruction": "instruction2",
                        "sponsorInstruction": "sponsorInstruction2",
                        "version": "0.1"
                    }
                ],
                "aliases": [
                    {
                        "uid": "odm_alias1",
                        "context": "context1",
                        "name": "name1",
                        "version": "0.1"
                    }
                ],
                "unitDefinitions": [
                    {
                        "uid": "unit_definition_root1",
                        "name": "name1",
                        "mandatory": false,
                        "order": 1,
                        "ucum": {
                            "termUid": "term_root1_uid",
                            "name": "name1"
                        },
                        "ctUnits": [
                            {
                                "termUid": "C25532_name1",
                                "name": "name1"
                            }
                        ]
                    }
                ],
                "codelist": {
                    "uid": "editable_cr",
                    "name": "codelist attributes value1",
                    "submissionValue": "codelist submission value1",
                    "preferredTerm": "codelist preferred term"
                },
                "terms": [
                    {
                        "termUid": "term_root_final",
                        "name": "term_value_name1",
                        "mandatory": true,
                        "order": 1
                    }
                ],
                "activities": [
                    {
                        "uid": "activity_root1",
                        "name": "name1"
                    }
                ],
                "xmlExtensionTags": [],
                "xmlExtensionAttributes": [],
                "xmlExtensionTagAttributes": [],
                "possibleActions": [
                    "inactivate",
                    "newVersion"
                ]
            }
        }
    },
    {
        "name": "Test overriding activities from a specific odm item",
        "request": {
            "headers": {},
            "method": "POST",
            "request": [
                {
                    "uid": "activity_root2"
                }
            ],
            "url": "concepts/odms/items/OdmItem_000001/add-activities?override=true"
        },
        "response": {
            "code": 201,
            "headers": {
                "content-length": "459",
                "content-type": "application/json"
            },
            "result": {
                "uid": "OdmItem_000001",
                "libraryName": "Sponsor",
                "name": "name1",
                "oid": "oid1",
                "prompt": "prompt1",
                "datatype": "datatype1",
                "length": 11,
                "significantDigits": 11,
                "sasFieldName": "sasFieldName1",
                "sdsVarName": "sdsVarName1",
                "origin": "origin1",
                "comment": "new comment",
                "startDate": "2022-03-03T13:18:03.230000",
                "endDate": null,
                "status": "Final",
                "version": "1.0",
                "changeDescription": "Reactivated version",
                "userInitials": "TODO initials",
                "descriptions": [
                    {
                        "uid": "odm_description1",
                        "name": "name1",
                        "language": "ENG",
                        "description": "description1",
                        "instruction": "instruction1",
                        "sponsorInstruction": "sponsorInstruction1",
                        "version": "0.1"
                    },
                    {
                        "uid": "odm_description2",
                        "name": "name2",
                        "language": "language2",
                        "description": "description2",
                        "instruction": "instruction2",
                        "sponsorInstruction": "sponsorInstruction2",
                        "version": "0.1"
                    }
                ],
                "aliases": [
                    {
                        "uid": "odm_alias1",
                        "context": "context1",
                        "name": "name1",
                        "version": "0.1"
                    }
                ],
                "unitDefinitions": [
                    {
                        "uid": "unit_definition_root1",
                        "name": "name1",
                        "mandatory": false,
                        "order": 1,
                        "ucum": {
                            "termUid": "term_root1_uid",
                            "name": "name1"
                        },
                        "ctUnits": [
                            {
                                "termUid": "C25532_name1",
                                "name": "name1"
                            }
                        ]
                    }
                ],
                "codelist": {
                    "uid": "editable_cr",
                    "name": "codelist attributes value1",
                    "submissionValue": "codelist submission value1",
                    "preferredTerm": "codelist preferred term"
                },
                "terms": [
                    {
                        "termUid": "term_root_final",
                        "name": "term_value_name1",
                        "mandatory": true,
                        "order": 1
                    }
                ],
                "activities": [
                    {
                        "uid": "activity_root2",
                        "name": "name2"
                    }
                ],
                "xmlExtensionTags": [],
                "xmlExtensionAttributes": [],
                "xmlExtensionTagAttributes": [],
                "possibleActions": [
                    "inactivate",
                    "newVersion"
                ]
            }
        }
    },
    {
        "name": "Test adding odm xml extension tag to a specific odm item",
        "request": {
            "headers": {},
            "method": "POST",
            "request": [
                {
                    "uid": "odm_xml_extension_tag2",
                    "value": "value"
                }
            ],
            "url": "concepts/odms/items/OdmItem_000001/add-xml-extension-tags"
        },
        "response": {
            "code": 201,
            "headers": {
                "content-length": "459",
                "content-type": "application/json"
            },
            "result": {
                "uid": "OdmItem_000001",
                "libraryName": "Sponsor",
                "name": "name1",
                "oid": "oid1",
                "prompt": "prompt1",
                "datatype": "datatype1",
                "length": 11,
                "significantDigits": 11,
                "sasFieldName": "sasFieldName1",
                "sdsVarName": "sdsVarName1",
                "origin": "origin1",
                "comment": "new comment",
                "startDate": "2022-03-03T13:18:03.230000",
                "endDate": null,
                "status": "Final",
                "version": "1.0",
                "changeDescription": "Reactivated version",
                "userInitials": "TODO initials",
                "descriptions": [
                    {
                        "uid": "odm_description1",
                        "name": "name1",
                        "language": "ENG",
                        "description": "description1",
                        "instruction": "instruction1",
                        "sponsorInstruction": "sponsorInstruction1",
                        "version": "0.1"
                    },
                    {
                        "uid": "odm_description2",
                        "name": "name2",
                        "language": "language2",
                        "description": "description2",
                        "instruction": "instruction2",
                        "sponsorInstruction": "sponsorInstruction2",
                        "version": "0.1"
                    }
                ],
                "aliases": [
                    {
                        "uid": "odm_alias1",
                        "context": "context1",
                        "name": "name1",
                        "version": "0.1"
                    }
                ],
                "unitDefinitions": [
                    {
                        "uid": "unit_definition_root1",
                        "name": "name1",
                        "mandatory": false,
                        "order": 1,
                        "ucum": {
                            "termUid": "term_root1_uid",
                            "name": "name1"
                        },
                        "ctUnits": [
                            {
                                "termUid": "C25532_name1",
                                "name": "name1"
                            }
                        ]
                    }
                ],
                "codelist": {
                    "uid": "editable_cr",
                    "name": "codelist attributes value1",
                    "submissionValue": "codelist submission value1",
                    "preferredTerm": "codelist preferred term"
                },
                "terms": [
                    {
                        "termUid": "term_root_final",
                        "name": "term_value_name1",
                        "mandatory": true,
                        "order": 1
                    }
                ],
                "activities": [
                    {
                        "uid": "activity_root2",
                        "name": "name2"
                    }
                ],
                "xmlExtensionTags": [
                    {
                        "uid": "odm_xml_extension_tag2",
                        "name": "nameTwo",
                        "value": "value"
                    }
                ],
                "xmlExtensionAttributes": [],
                "xmlExtensionTagAttributes": [],
                "possibleActions": [
                    "inactivate",
                    "newVersion"
                ]
            }
        }
    },
    {
        "name": "Test overriding odm xml extension tag from a specific odm item",
        "request": {
            "headers": {},
            "method": "POST",
            "request": [
                {
                    "uid": "odm_xml_extension_tag1",
                    "value": "value"
                }
            ],
            "url": "concepts/odms/items/OdmItem_000001/add-xml-extension-tags?override=true"
        },
        "response": {
            "code": 201,
            "headers": {
                "content-length": "459",
                "content-type": "application/json"
            },
            "result": {
                "uid": "OdmItem_000001",
                "libraryName": "Sponsor",
                "name": "name1",
                "oid": "oid1",
                "prompt": "prompt1",
                "datatype": "datatype1",
                "length": 11,
                "significantDigits": 11,
                "sasFieldName": "sasFieldName1",
                "sdsVarName": "sdsVarName1",
                "origin": "origin1",
                "comment": "new comment",
                "startDate": "2022-03-03T13:18:03.230000",
                "endDate": null,
                "status": "Final",
                "version": "1.0",
                "changeDescription": "Reactivated version",
                "userInitials": "TODO initials",
                "descriptions": [
                    {
                        "uid": "odm_description1",
                        "name": "name1",
                        "language": "ENG",
                        "description": "description1",
                        "instruction": "instruction1",
                        "sponsorInstruction": "sponsorInstruction1",
                        "version": "0.1"
                    },
                    {
                        "uid": "odm_description2",
                        "name": "name2",
                        "language": "language2",
                        "description": "description2",
                        "instruction": "instruction2",
                        "sponsorInstruction": "sponsorInstruction2",
                        "version": "0.1"
                    }
                ],
                "aliases": [
                    {
                        "uid": "odm_alias1",
                        "context": "context1",
                        "name": "name1",
                        "version": "0.1"
                    }
                ],
                "unitDefinitions": [
                    {
                        "uid": "unit_definition_root1",
                        "name": "name1",
                        "mandatory": false,
                        "order": 1,
                        "ucum": {
                            "termUid": "term_root1_uid",
                            "name": "name1"
                        },
                        "ctUnits": [
                            {
                                "termUid": "C25532_name1",
                                "name": "name1"
                            }
                        ]
                    }
                ],
                "codelist": {
                    "uid": "editable_cr",
                    "name": "codelist attributes value1",
                    "submissionValue": "codelist submission value1",
                    "preferredTerm": "codelist preferred term"
                },
                "terms": [
                    {
                        "termUid": "term_root_final",
                        "name": "term_value_name1",
                        "mandatory": true,
                        "order": 1
                    }
                ],
                "activities": [
                    {
                        "uid": "activity_root2",
                        "name": "name2"
                    }
                ],
                "xmlExtensionTags": [
                    {
                        "uid": "odm_xml_extension_tag1",
                        "name": "nameOne",
                        "value": "value"
                    }
                ],
                "xmlExtensionAttributes": [],
                "xmlExtensionTagAttributes": [],
                "possibleActions": [
                    "inactivate",
                    "newVersion"
                ]
            }
        }
    },
    {
        "name": "Test adding odm xml extension attribute to a specific odm item",
        "request": {
            "headers": {},
            "method": "POST",
            "request": [
                {
                    "uid": "odm_xml_extension_attribute3",
                    "value": "value"
                }
            ],
            "url": "concepts/odms/items/OdmItem_000001/add-xml-extension-attributes"
        },
        "response": {
            "code": 201,
            "headers": {
                "content-length": "459",
                "content-type": "application/json"
            },
            "result": {
                "uid": "OdmItem_000001",
                "libraryName": "Sponsor",
                "name": "name1",
                "oid": "oid1",
                "prompt": "prompt1",
                "datatype": "datatype1",
                "length": 11,
                "significantDigits": 11,
                "sasFieldName": "sasFieldName1",
                "sdsVarName": "sdsVarName1",
                "origin": "origin1",
                "comment": "new comment",
                "startDate": "2022-03-03T13:18:03.230000",
                "endDate": null,
                "status": "Final",
                "version": "1.0",
                "changeDescription": "Reactivated version",
                "userInitials": "TODO initials",
                "descriptions": [
                    {
                        "uid": "odm_description1",
                        "name": "name1",
                        "language": "ENG",
                        "description": "description1",
                        "instruction": "instruction1",
                        "sponsorInstruction": "sponsorInstruction1",
                        "version": "0.1"
                    },
                    {
                        "uid": "odm_description2",
                        "name": "name2",
                        "language": "language2",
                        "description": "description2",
                        "instruction": "instruction2",
                        "sponsorInstruction": "sponsorInstruction2",
                        "version": "0.1"
                    }
                ],
                "aliases": [
                    {
                        "uid": "odm_alias1",
                        "context": "context1",
                        "name": "name1",
                        "version": "0.1"
                    }
                ],
                "unitDefinitions": [
                    {
                        "uid": "unit_definition_root1",
                        "name": "name1",
                        "mandatory": false,
                        "order": 1,
                        "ucum": {
                            "termUid": "term_root1_uid",
                            "name": "name1"
                        },
                        "ctUnits": [
                            {
                                "termUid": "C25532_name1",
                                "name": "name1"
                            }
                        ]
                    }
                ],
                "codelist": {
                    "uid": "editable_cr",
                    "name": "codelist attributes value1",
                    "submissionValue": "codelist submission value1",
                    "preferredTerm": "codelist preferred term"
                },
                "terms": [
                    {
                        "termUid": "term_root_final",
                        "name": "term_value_name1",
                        "mandatory": true,
                        "order": 1
                    }
                ],
                "activities": [
                    {
                        "uid": "activity_root2",
                        "name": "name2"
                    }
                ],
                "xmlExtensionTags": [
                    {
                        "uid": "odm_xml_extension_tag1",
                        "name": "nameOne",
                        "value": "value"
                    }
                ],
                "xmlExtensionAttributes": [
                    {
                        "uid": "odm_xml_extension_attribute3",
                        "name": "nameThree",
                        "value": "value",
                        "odmXmlExtensionUid": "odm_xml_extension1"
                    }
                ],
                "xmlExtensionTagAttributes": [],
                "possibleActions": [
                    "inactivate",
                    "newVersion"
                ]
            }
        }
    },
    {
        "name": "Test overriding odm xml extension attribute from a specific odm item",
        "request": {
            "headers": {},
            "method": "POST",
            "request": [
                {
                    "uid": "odm_xml_extension_attribute4",
                    "value": "value"
                }
            ],
            "url": "concepts/odms/items/OdmItem_000001/add-xml-extension-attributes?override=true"
        },
        "response": {
            "code": 201,
            "headers": {
                "content-length": "459",
                "content-type": "application/json"
            },
            "result": {
                "uid": "OdmItem_000001",
                "libraryName": "Sponsor",
                "name": "name1",
                "oid": "oid1",
                "prompt": "prompt1",
                "datatype": "datatype1",
                "length": 11,
                "significantDigits": 11,
                "sasFieldName": "sasFieldName1",
                "sdsVarName": "sdsVarName1",
                "origin": "origin1",
                "comment": "new comment",
                "startDate": "2022-03-03T13:18:03.230000",
                "endDate": null,
                "status": "Final",
                "version": "1.0",
                "changeDescription": "Reactivated version",
                "userInitials": "TODO initials",
                "descriptions": [
                    {
                        "uid": "odm_description1",
                        "name": "name1",
                        "language": "ENG",
                        "description": "description1",
                        "instruction": "instruction1",
                        "sponsorInstruction": "sponsorInstruction1",
                        "version": "0.1"
                    },
                    {
                        "uid": "odm_description2",
                        "name": "name2",
                        "language": "language2",
                        "description": "description2",
                        "instruction": "instruction2",
                        "sponsorInstruction": "sponsorInstruction2",
                        "version": "0.1"
                    }
                ],
                "aliases": [
                    {
                        "uid": "odm_alias1",
                        "context": "context1",
                        "name": "name1",
                        "version": "0.1"
                    }
                ],
                "unitDefinitions": [
                    {
                        "uid": "unit_definition_root1",
                        "name": "name1",
                        "mandatory": false,
                        "order": 1,
                        "ucum": {
                            "termUid": "term_root1_uid",
                            "name": "name1"
                        },
                        "ctUnits": [
                            {
                                "termUid": "C25532_name1",
                                "name": "name1"
                            }
                        ]
                    }
                ],
                "codelist": {
                    "uid": "editable_cr",
                    "name": "codelist attributes value1",
                    "submissionValue": "codelist submission value1",
                    "preferredTerm": "codelist preferred term"
                },
                "terms": [
                    {
                        "termUid": "term_root_final",
                        "name": "term_value_name1",
                        "mandatory": true,
                        "order": 1
                    }
                ],
                "activities": [
                    {
                        "uid": "activity_root2",
                        "name": "name2"
                    }
                ],
                "xmlExtensionTags": [
                    {
                        "uid": "odm_xml_extension_tag1",
                        "name": "nameOne",
                        "value": "value"
                    }
                ],
                "xmlExtensionAttributes": [
                    {
                        "uid": "odm_xml_extension_attribute4",
                        "name": "nameFour",
                        "value": "value",
                        "odmXmlExtensionUid": "odm_xml_extension1"
                    }
                ],
                "xmlExtensionTagAttributes": [],
                "possibleActions": [
                    "inactivate",
                    "newVersion"
                ]
            }
        }
    },
    {
        "name": "Test adding odm xml extension tag attribute to a specific odm item",
        "request": {
            "headers": {},
            "method": "POST",
            "request": [
                {
                    "uid": "odm_xml_extension_attribute1",
                    "value": "value"
                }
            ],
            "url": "concepts/odms/items/OdmItem_000001/add-xml-extension-tag-attributes"
        },
        "response": {
            "code": 201,
            "headers": {
                "content-length": "459",
                "content-type": "application/json"
            },
            "result": {
                "uid": "OdmItem_000001",
                "libraryName": "Sponsor",
                "name": "name1",
                "oid": "oid1",
                "prompt": "prompt1",
                "datatype": "datatype1",
                "length": 11,
                "significantDigits": 11,
                "sasFieldName": "sasFieldName1",
                "sdsVarName": "sdsVarName1",
                "origin": "origin1",
                "comment": "new comment",
                "startDate": "2022-03-03T13:18:03.230000",
                "endDate": null,
                "status": "Final",
                "version": "1.0",
                "changeDescription": "Reactivated version",
                "userInitials": "TODO initials",
                "descriptions": [
                    {
                        "uid": "odm_description1",
                        "name": "name1",
                        "language": "ENG",
                        "description": "description1",
                        "instruction": "instruction1",
                        "sponsorInstruction": "sponsorInstruction1",
                        "version": "0.1"
                    },
                    {
                        "uid": "odm_description2",
                        "name": "name2",
                        "language": "language2",
                        "description": "description2",
                        "instruction": "instruction2",
                        "sponsorInstruction": "sponsorInstruction2",
                        "version": "0.1"
                    }
                ],
                "aliases": [
                    {
                        "uid": "odm_alias1",
                        "context": "context1",
                        "name": "name1",
                        "version": "0.1"
                    }
                ],
                "unitDefinitions": [
                    {
                        "uid": "unit_definition_root1",
                        "name": "name1",
                        "mandatory": false,
                        "order": 1,
                        "ucum": {
                            "termUid": "term_root1_uid",
                            "name": "name1"
                        },
                        "ctUnits": [
                            {
                                "termUid": "C25532_name1",
                                "name": "name1"
                            }
                        ]
                    }
                ],
                "codelist": {
                    "uid": "editable_cr",
                    "name": "codelist attributes value1",
                    "submissionValue": "codelist submission value1",
                    "preferredTerm": "codelist preferred term"
                },
                "terms": [
                    {
                        "termUid": "term_root_final",
                        "name": "term_value_name1",
                        "mandatory": true,
                        "order": 1
                    }
                ],
                "activities": [
                    {
                        "uid": "activity_root2",
                        "name": "name2"
                    }
                ],
                "xmlExtensionTags": [
                    {
                        "uid": "odm_xml_extension_tag1",
                        "name": "nameOne",
                        "value": "value"
                    }
                ],
                "xmlExtensionAttributes": [
                    {
                        "uid": "odm_xml_extension_attribute4",
                        "name": "nameFour",
                        "value": "value",
                        "odmXmlExtensionUid": "odm_xml_extension1"
                    }
                ],
                "xmlExtensionTagAttributes": [
                    {
                        "uid": "odm_xml_extension_attribute1",
                        "name": "nameOne",
                        "value": "value",
                        "odmXmlExtensionTagUid": "odm_xml_extension_tag1"
                    }
                ],
                "possibleActions": [
                    "inactivate",
                    "newVersion"
                ]
            }
        }
    },
    {
        "name": "Test overriding odm xml extension tag attribute from a specific odm item",
        "request": {
            "headers": {},
            "method": "POST",
            "request": [
                {
                    "uid": "odm_xml_extension_attribute2",
                    "value": "value"
                }
            ],
            "url": "concepts/odms/items/OdmItem_000001/add-xml-extension-tag-attributes?override=true"
        },
        "response": {
            "code": 201,
            "headers": {
                "content-length": "459",
                "content-type": "application/json"
            },
            "result": {
                "uid": "OdmItem_000001",
                "libraryName": "Sponsor",
                "name": "name1",
                "oid": "oid1",
                "prompt": "prompt1",
                "datatype": "datatype1",
                "length": 11,
                "significantDigits": 11,
                "sasFieldName": "sasFieldName1",
                "sdsVarName": "sdsVarName1",
                "origin": "origin1",
                "comment": "new comment",
                "startDate": "2022-03-03T13:18:03.230000",
                "endDate": null,
                "status": "Final",
                "version": "1.0",
                "changeDescription": "Reactivated version",
                "userInitials": "TODO initials",
                "descriptions": [
                    {
                        "uid": "odm_description1",
                        "name": "name1",
                        "language": "ENG",
                        "description": "description1",
                        "instruction": "instruction1",
                        "sponsorInstruction": "sponsorInstruction1",
                        "version": "0.1"
                    },
                    {
                        "uid": "odm_description2",
                        "name": "name2",
                        "language": "language2",
                        "description": "description2",
                        "instruction": "instruction2",
                        "sponsorInstruction": "sponsorInstruction2",
                        "version": "0.1"
                    }
                ],
                "aliases": [
                    {
                        "uid": "odm_alias1",
                        "context": "context1",
                        "name": "name1",
                        "version": "0.1"
                    }
                ],
                "unitDefinitions": [
                    {
                        "uid": "unit_definition_root1",
                        "name": "name1",
                        "mandatory": false,
                        "order": 1,
                        "ucum": {
                            "termUid": "term_root1_uid",
                            "name": "name1"
                        },
                        "ctUnits": [
                            {
                                "termUid": "C25532_name1",
                                "name": "name1"
                            }
                        ]
                    }
                ],
                "codelist": {
                    "uid": "editable_cr",
                    "name": "codelist attributes value1",
                    "submissionValue": "codelist submission value1",
                    "preferredTerm": "codelist preferred term"
                },
                "terms": [
                    {
                        "termUid": "term_root_final",
                        "name": "term_value_name1",
                        "mandatory": true,
                        "order": 1
                    }
                ],
                "activities": [
                    {
                        "uid": "activity_root2",
                        "name": "name2"
                    }
                ],
                "xmlExtensionTags": [
                    {
                        "uid": "odm_xml_extension_tag1",
                        "name": "nameOne",
                        "value": "value"
                    }
                ],
                "xmlExtensionAttributes": [
                    {
                        "uid": "odm_xml_extension_attribute4",
                        "name": "nameFour",
                        "value": "value",
                        "odmXmlExtensionUid": "odm_xml_extension1"
                    }
                ],
                "xmlExtensionTagAttributes": [
                    {
                        "uid": "odm_xml_extension_attribute2",
                        "name": "nameTwo",
                        "value": "value",
                        "odmXmlExtensionTagUid": "odm_xml_extension_tag1"
                    }
                ],
                "possibleActions": [
                    "inactivate",
                    "newVersion"
                ]
            }
        }
    },
    {
        "name": "Test creating a new odm item version",
        "request": {
            "headers": {},
            "method": "POST",
            "request": {},
            "url": "concepts/odms/items/OdmItem_000001/new-version"
        },
        "response": {
            "code": 201,
            "headers": {
                "content-length": "459",
                "content-type": "application/json"
            },
            "result": {
                "uid": "OdmItem_000001",
                "libraryName": "Sponsor",
                "name": "name1",
                "oid": "oid1",
                "prompt": "prompt1",
                "datatype": "datatype1",
                "length": 11,
                "significantDigits": 11,
                "sasFieldName": "sasFieldName1",
                "sdsVarName": "sdsVarName1",
                "origin": "origin1",
                "comment": "new comment",
                "startDate": "2022-03-03T11:17:56.799074",
                "endDate": null,
                "status": "Draft",
                "version": "1.1",
                "changeDescription": "New draft created",
                "userInitials": "TODO user initials",
                "descriptions": [
                    {
                        "uid": "odm_description1",
                        "name": "name1",
                        "language": "ENG",
                        "description": "description1",
                        "instruction": "instruction1",
                        "sponsorInstruction": "sponsorInstruction1",
                        "version": "0.1"
                    },
                    {
                        "uid": "odm_description2",
                        "name": "name2",
                        "language": "language2",
                        "description": "description2",
                        "instruction": "instruction2",
                        "sponsorInstruction": "sponsorInstruction2",
                        "version": "0.1"
                    }
                ],
                "aliases": [
                    {
                        "uid": "odm_alias1",
                        "context": "context1",
                        "name": "name1",
                        "version": "0.1"
                    }
                ],
                "unitDefinitions": [
                    {
                        "uid": "unit_definition_root1",
                        "name": "name1",
                        "mandatory": false,
                        "order": 1,
                        "ucum": {
                            "termUid": "term_root1_uid",
                            "name": "name1"
                        },
                        "ctUnits": [
                            {
                                "termUid": "C25532_name1",
                                "name": "name1"
                            }
                        ]
                    }
                ],
                "codelist": {
                    "uid": "editable_cr",
                    "name": "codelist attributes value1",
                    "submissionValue": "codelist submission value1",
                    "preferredTerm": "codelist preferred term"
                },
                "terms": [
                    {
                        "termUid": "term_root_final",
                        "name": "term_value_name1",
                        "mandatory": true,
                        "order": 1
                    }
                ],
                "activities": [
                    {
                        "uid": "activity_root2",
                        "name": "name2"
                    }
                ],
                "xmlExtensionTags": [
                    {
                        "uid": "odm_xml_extension_tag1",
                        "name": "nameOne",
                        "value": "value"
                    }
                ],
                "xmlExtensionAttributes": [
                    {
                        "uid": "odm_xml_extension_attribute4",
                        "name": "nameFour",
                        "value": "value",
                        "odmXmlExtensionUid": "odm_xml_extension1"
                    }
                ],
                "xmlExtensionTagAttributes": [
                    {
                        "uid": "odm_xml_extension_attribute2",
                        "name": "nameTwo",
                        "value": "value",
                        "odmXmlExtensionTagUid": "odm_xml_extension_tag1"
                    }
                ],
                "possibleActions": [
                    "approve",
                    "edit"
                ]
            }
        }
    },
    {
        "name": "Create a new odm item for deleting it",
        "request": {
            "headers": {},
            "method": "POST",
            "request": {
                "libraryName": "Sponsor",
                "name": "name1 - delete",
                "oid": "oid2",
                "prompt": "prompt1",
                "datatype": "datatype1",
                "length": 11,
                "significantDigits": 11,
                "sasFieldName": "sasFieldName1",
                "sdsVarName": "sdsVarName1",
                "origin": "origin1",
                "comment": "comment1",
                "descriptionUids": [
                    "odm_description1"
                ],
                "aliasUids": [],
                "unitDefinitions": [
                    {
                        "uid": "unit_definition_root1",
                        "mandatory": false,
                        "order": 1
                    }
                ],
                "codelistUid": null,
                "terms": []
            },
            "url": "concepts/odms/items/select"
        },
        "response": {
            "code": 201,
            "headers": {
                "content-length": "459",
                "content-type": "application/json"
            },
            "result": {
                "uid": "OdmItem_000002",
                "libraryName": "Sponsor",
                "name": "name1 - delete",
                "oid": "oid2",
                "prompt": "prompt1",
                "datatype": "datatype1",
                "length": 11,
                "significantDigits": 11,
                "sasFieldName": "sasFieldName1",
                "sdsVarName": "sdsVarName1",
                "origin": "origin1",
                "comment": "comment1",
                "startDate": "2022-03-03T11:17:56.799074",
                "endDate": null,
                "status": "Draft",
                "version": "0.1",
                "changeDescription": "Initial version",
                "userInitials": "TODO user initials",
                "descriptions": [
                    {
                        "uid": "odm_description1",
                        "name": "name1",
                        "language": "ENG",
                        "description": "description1",
                        "instruction": "instruction1",
                        "sponsorInstruction": "sponsorInstruction1",
                        "version": "0.1"
                    }
                ],
                "aliases": [],
                "unitDefinitions": [
                    {
                        "uid": "unit_definition_root1",
                        "name": "name1",
                        "mandatory": false,
                        "order": 1,
                        "ucum": {
                            "termUid": "term_root1_uid",
                            "name": "name1"
                        },
                        "ctUnits": [
                            {
                                "termUid": "C25532_name1",
                                "name": "name1"
                            }
                        ]
                    }
                ],
                "codelist": null,
                "terms": [],
                "activities": [],
                "xmlExtensionTags": [],
                "xmlExtensionAttributes": [],
                "xmlExtensionTagAttributes": [],
                "possibleActions": [
                    "approve",
                    "delete",
                    "edit"
                ]
            }
        }
    },
    {
        "name": "Test deleting a specific odm item",
        "request": {
            "headers": {},
            "method": "DELETE",
            "request": {},
            "url": "concepts/odms/items/OdmItem_000002"
        },
        "response": {
            "code": 204,
            "headers": {
                "content-length": "2",
                "content-type": "application/json"
            },
            "result": null
        }
    },
    {
        "name": "Test creating a new odm item with relations",
        "request": {
            "headers": {},
            "method": "POST",
            "request": {
                "libraryName": "Sponsor",
                "name": "string",
                "oid": "string",
                "prompt": "string",
                "datatype": "string",
                "length": 11,
                "significantDigits": 11,
                "sasFieldName": "string",
                "sdsVarName": "string",
                "origin": "string",
                "comment": "string",
                "descriptions": [
                    "odm_description1",
                    {
                        "name": "string1",
                        "libraryName": "Sponsor",
                        "language": "DAN",
                        "description": "string1",
                        "instruction": "string1",
                        "sponsorInstruction": "string1"
                    }
                ],
                "aliasUids": [],
                "unitDefinitions": [],
                "codelistUid": null,
                "terms": []
            },
            "url": "concepts/odms/items/create"
        },
        "response": {
            "code": 201,
            "headers": {
                "content-length": "459",
                "content-type": "application/json"
            },
            "result": {
                "uid": "OdmItem_000003",
                "libraryName": "Sponsor",
                "name": "string",
                "oid": "string",
                "prompt": "string",
                "datatype": "string",
                "length": 11,
                "significantDigits": 11,
                "sasFieldName": "string",
                "sdsVarName": "string",
                "origin": "string",
                "comment": "string",
                "startDate": "2022-03-03T11:17:56.799074",
                "endDate": null,
                "status": "Draft",
                "version": "0.1",
                "changeDescription": "Initial version",
                "userInitials": "TODO user initials",
                "descriptions": [
                    {
                        "uid": "odm_description1",
                        "name": "name1",
                        "language": "ENG",
                        "description": "description1",
                        "instruction": "instruction1",
                        "sponsorInstruction": "sponsorInstruction1",
                        "version": "0.1"
                    },
                    {
                        "uid": "OdmDescription_000001",
                        "name": "string1",
                        "language": "DAN",
                        "description": "string1",
                        "instruction": "string1",
                        "sponsorInstruction": "string1",
                        "version": "0.1"
                    }
                ],
                "aliases": [],
                "unitDefinitions": [],
                "codelist": null,
                "terms": [],
                "activities": [],
                "xmlExtensionTags": [],
                "xmlExtensionAttributes": [],
                "xmlExtensionTagAttributes": [],
                "possibleActions": [
                    "approve",
                    "delete",
                    "edit"
                ]
            }
        }
    },
    {
        "name": "Test updating an existing odm item with relations",
        "request": {
            "headers": {},
            "method": "PATCH",
            "request": {
                "libraryName": "Sponsor",
                "name": "name1",
                "oid": "oid1",
                "prompt": "prompt1",
                "datatype": "datatype1",
                "length": 11,
                "significantDigits": 11,
                "sasFieldName": "sasFieldName1",
                "sdsVarName": "sdsVarName1",
                "origin": "origin1",
                "comment": "new comment",
                "changeDescription": "comment added",
                "descriptions": [
                    {
                        "name": "string3",
                        "libraryName": "Sponsor",
                        "language": "ARA",
                        "description": "string3",
                        "instruction": "string3",
                        "sponsorInstruction": "string3"
                    },
                    {
                        "uid": "odm_description1",
                        "name": "name1",
                        "language": "ENG",
                        "description": "description1",
                        "instruction": "instruction1",
                        "sponsorInstruction": "sponsorInstruction1",
                        "changeDescription": "nothing changed"
                    }
                ],
                "aliasUids": [
                    "odm_alias1"
                ],
                "unitDefinitions": [
                    {
                        "uid": "unit_definition_root1",
                        "mandatory": false,
                        "order": 1
                    }
                ],
                "codelistUid": "editable_cr",
                "terms": [
                    {
                        "uid": "term_root_final",
                        "mandatory": true,
                        "order": 1
                    }
                ]
            },
            "url": "concepts/odms/items/OdmItem_000001/update"
        },
        "response": {
            "code": 200,
            "headers": {
                "content-length": "459",
                "content-type": "application/json"
            },
            "result": {
                "uid": "OdmItem_000001",
                "libraryName": "Sponsor",
                "name": "name1",
                "oid": "oid1",
                "prompt": "prompt1",
                "datatype": "datatype1",
                "length": 11,
                "significantDigits": 11,
                "sasFieldName": "sasFieldName1",
                "sdsVarName": "sdsVarName1",
                "origin": "origin1",
                "comment": "new comment",
                "startDate": "2022-03-03T11:17:56.799074",
                "endDate": null,
                "status": "Draft",
                "version": "1.2",
                "changeDescription": "comment added",
                "userInitials": "TODO user initials",
                "descriptions": [
                    {
                        "uid": "odm_description1",
                        "name": "name1",
                        "language": "ENG",
                        "description": "description1",
                        "instruction": "instruction1",
                        "sponsorInstruction": "sponsorInstruction1",
                        "version": "0.1"
                    },
                    {
                        "uid": "OdmDescription_000002",
                        "name": "string3",
                        "language": "ARA",
                        "description": "string3",
                        "instruction": "string3",
                        "sponsorInstruction": "string3",
                        "version": "0.1"
                    }
                ],
                "aliases": [
                    {
                        "uid": "odm_alias1",
                        "context": "context1",
                        "name": "name1",
                        "version": "0.1"
                    }
                ],
                "unitDefinitions": [
                    {
                        "uid": "unit_definition_root1",
                        "name": "name1",
                        "mandatory": false,
                        "order": 1,
                        "ucum": {
                            "termUid": "term_root1_uid",
                            "name": "name1"
                        },
                        "ctUnits": [
                            {
                                "termUid": "C25532_name1",
                                "name": "name1"
                            }
                        ]
                    }
                ],
                "codelist": {
                    "uid": "editable_cr",
                    "name": "codelist attributes value1",
                    "submissionValue": "codelist submission value1",
                    "preferredTerm": "codelist preferred term"
                },
                "terms": [
                    {
                        "termUid": "term_root_final",
                        "name": "term_value_name1",
                        "mandatory": true,
                        "order": 1
                    }
                ],
                "activities": [
                    {
                        "uid": "activity_root2",
                        "name": "name2"
                    }
                ],
                "xmlExtensionTags": [
                    {
                        "uid": "odm_xml_extension_tag1",
                        "name": "nameOne",
                        "value": "value"
                    }
                ],
                "xmlExtensionAttributes": [
                    {
                        "uid": "odm_xml_extension_attribute4",
                        "name": "nameFour",
                        "value": "value",
                        "odmXmlExtensionUid": "odm_xml_extension1"
                    }
                ],
                "xmlExtensionTagAttributes": [
                    {
                        "uid": "odm_xml_extension_attribute2",
                        "name": "nameTwo",
                        "value": "value",
                        "odmXmlExtensionTagUid": "odm_xml_extension_tag1"
                    }
                ],
                "possibleActions": [
                    "approve",
                    "edit"
                ]
            }
        }
    },
    {
        "name": "Create a new odm item group with relation to odm item",
        "request": {
            "headers": {},
            "method": "POST",
            "request": {
                "libraryName": "Sponsor",
                "name": "name1",
                "oid": "oid1",
                "repeating": "No",
                "isReferenceData": "No",
                "sasDatasetName": "sasDatasetName1",
                "origin": "origin1",
                "purpose": "purpose1",
                "comment": "comment1",
                "descriptionUids": [],
                "aliasUids": [],
                "sdtmDomainUids": []
            },
            "url": "concepts/odms/item-groups/select"
        },
        "response": {
            "code": 201,
            "headers": {
                "content-length": "459",
                "content-type": "application/json"
            },
            "result": {
                "uid": "OdmItemGroup_000001",
                "name": "name1",
                "libraryName": "Sponsor",
                "oid": "oid1",
                "repeating": "No",
                "isReferenceData": "No",
                "sasDatasetName": "sasDatasetName1",
                "origin": "origin1",
                "purpose": "purpose1",
                "comment": "comment1",
                "startDate": "2022-03-03T11:17:56.799074",
                "endDate": null,
                "status": "Draft",
                "version": "0.1",
                "changeDescription": "Initial version",
                "userInitials": "TODO user initials",
                "descriptions": [],
                "aliases": [],
                "sdtmDomains": [],
                "activitySubGroups": [],
                "items": [],
                "xmlExtensionTags": [],
                "xmlExtensionAttributes": [],
                "xmlExtensionTagAttributes": [],
                "possibleActions": [
                    "approve",
                    "delete",
                    "edit"
                ]
            }
        }
    },
    {
        "name": "Approve the odm item group",
        "request": {
            "headers": {},
            "method": "POST",
            "request": {},
            "url": "concepts/odms/item-groups/OdmItemGroup_000001/approve"
        },
        "response": {
            "code": 201,
            "headers": {
                "content-length": "459",
                "content-type": "application/json"
            },
            "result": {
                "uid": "OdmItemGroup_000001",
                "name": "name1",
                "libraryName": "Sponsor",
                "oid": "oid1",
                "repeating": "No",
                "isReferenceData": "No",
                "sasDatasetName": "sasDatasetName1",
                "origin": "origin1",
                "purpose": "purpose1",
                "comment": "comment1",
                "startDate": "2022-03-03T11:17:56.799074",
                "endDate": null,
                "status": "Final",
                "version": "1.0",
                "changeDescription": "Approved version",
                "userInitials": "TODO user initials",
                "descriptions": [],
                "aliases": [],
                "sdtmDomains": [],
                "activitySubGroups": [],
                "items": [],
                "xmlExtensionTags": [],
                "xmlExtensionAttributes": [],
                "xmlExtensionTagAttributes": [],
                "possibleActions": [
                    "inactivate",
                    "newVersion"
                ]
            }
        }
    },
    {
        "name": "Add the odm item to the odm item group",
        "request": {
            "headers": {},
            "method": "POST",
            "request": [
                {
                    "uid": "OdmItem_000001",
                    "orderNumber": 1,
                    "mandatory": "Yes",
                    "dataEntryRequired": "Yes",
                    "sdv": "Yes",
                    "locked": "No",
                    "keySequence": "None",
                    "methodOid": "None",
                    "imputationMethodOid": "None",
                    "role": "role1",
                    "roleCodelistOid": "None",
                    "collectionExceptionConditionOid": "None"
                }
            ],
            "url": "concepts/odms/item-groups/OdmItemGroup_000001/add-items"
        },
        "response": {
            "code": 201,
            "headers": {
                "content-length": "459",
                "content-type": "application/json"
            },
            "result": {
                "uid": "OdmItemGroup_000001",
                "name": "name1",
                "libraryName": "Sponsor",
                "oid": "oid1",
                "repeating": "No",
                "isReferenceData": "No",
                "sasDatasetName": "sasDatasetName1",
                "origin": "origin1",
                "purpose": "purpose1",
                "comment": "comment1",
                "startDate": "2022-03-03T11:17:56.799074",
                "endDate": null,
                "status": "Final",
                "version": "1.0",
                "changeDescription": "Approved version",
                "userInitials": "TODO user initials",
                "descriptions": [],
                "aliases": [],
                "sdtmDomains": [],
                "activitySubGroups": [],
                "items": [
                    {
                        "uid": "OdmItem_000001",
                        "oid": "oid1",
                        "name": "name1",
                        "orderNumber": 1,
                        "mandatory": "Yes",
                        "dataEntryRequired": "Yes",
                        "sdv": "Yes",
                        "locked": "No",
                        "keySequence": "None",
                        "methodOid": "None",
                        "imputationMethodOid": "None",
                        "role": "role1",
                        "roleCodelistOid": "None",
                        "collectionExceptionConditionOid": "None"
                    }
                ],
                "xmlExtensionTags": [],
                "xmlExtensionAttributes": [],
                "xmlExtensionTagAttributes": [],
                "possibleActions": [
                    "inactivate",
                    "newVersion"
                ]
            }
        }
    },
    {
        "name": "Test getting UIDs of a specific odm item's active relationships",
        "request": {
            "headers": {},
            "method": "GET",
            "request": {},
            "url": "concepts/odms/items/OdmItem_000001/relationships"
        },
        "response": {
            "code": 200,
            "headers": {
                "content-length": "340",
                "content-type": "application/json"
            },
            "result": {
                "OdmItemGroup": [
                    "OdmItemGroup_000001"
                ]
            }
        }
    }
]