[
  {
    "changeDescription": "Approved version",
    "comment": "",
    "conversionFactorToMaster": 1.0,
    "convertibleUnit": true,
    "ctUnits": [],
    "definition": "milli-liter per deci-liter per minute_x000D_\n",
    "displayUnit": true,
    "endDate": null,
    "legacyCode": "mL/dL/min",
    "libraryName": "Sponsor",
    "masterUnit": true,
    "molecularWeightConvExpon": 0,
    "name": "mL/dL/min",
    "order": 21,
    "siUnit": true,
    "startDate": "2022-10-18T12:55:01.311424",
    "status": "Final",
    "templateParameter": true,
    "ucum": {
      "name": "mL/dL/min",
      "termUid": "DictionaryTerm_000114"
    },
    "uid": "UnitDefinition_000001",
    "unitDimension": {
      "name": "Blood flow",
      "termUid": "CTTerm_000245"
    },
    "unitSubsets": [],
    "usConventionalUnit": true,
    "userInitials": "MT",
    "version": "1.0"
  },
  {
    "changeDescription": "Approved version",
    "comment": "",
    "conversionFactorToMaster": 1.0,
    "convertibleUnit": true,
    "ctUnits": [
      {
        "name": "um2/sec",
        "termUid": "CTTerm_000270"
      }
    ],
    "definition": "Micrometer squared divided by second",
    "displayUnit": true,
    "endDate": null,
    "legacyCode": "um2/sec",
    "libraryName": "Sponsor",
    "masterUnit": true,
    "molecularWeightConvExpon": 0,
    "name": "um2/sec",
    "order": 1,
    "siUnit": true,
    "startDate": "2022-10-18T12:55:01.503242",
    "status": "Final",
    "templateParameter": true,
    "ucum": null,
    "uid": "UnitDefinition_000002",
    "unitDimension": null,
    "unitSubsets": [],
    "usConventionalUnit": true,
    "userInitials": "MT",
    "version": "1.0"
  },
  {
    "changeDescription": "Approved version",
    "comment": "",
    "conversionFactorToMaster": 1.0,
    "convertibleUnit": false,
    "ctUnits": [
      {
        "name": "%-point",
        "termUid": "CTTerm_000253"
      }
    ],
    "definition": "A percentage point or percent point is the unit for the arithmetic difference of two percentages.",
    "displayUnit": true,
    "endDate": null,
    "legacyCode": "%-point",
    "libraryName": "Sponsor",
    "masterUnit": false,
    "molecularWeightConvExpon": 0,
    "name": "%-point",
    "order": 1,
    "siUnit": false,
    "startDate": "2022-10-18T12:55:01.707571",
    "status": "Final",
    "templateParameter": true,
    "ucum": null,
    "uid": "UnitDefinition_000003",
    "unitDimension": {
      "name": "Percentage",
      "termUid": "CTTerm_000221"
    },
    "unitSubsets": [],
    "usConventionalUnit": false,
    "userInitials": "MT",
    "version": "1.0"
  },
  {
    "changeDescription": "Approved version",
    "comment": "",
    "conversionFactorToMaster": 1.0,
    "convertibleUnit": false,
    "ctUnits": [],
    "definition": "A dose calculation unit equal to one international unit (an arbitrary unit of biological activity) of a product multiplied with hour per unit of time equal to one mL",
    "displayUnit": true,
    "endDate": null,
    "legacyCode": "h*IU/mL",
    "libraryName": "Sponsor",
    "masterUnit": false,
    "molecularWeightConvExpon": 0,
    "name": "h*IU/mL",
    "order": 100,
    "siUnit": false,
    "startDate": "2022-10-18T12:55:01.801665",
    "status": "Final",
    "templateParameter": true,
    "ucum": {
      "name": "h.u[IU]/mL",
      "termUid": "DictionaryTerm_000111"
    },
    "uid": "UnitDefinition_000004",
    "unitDimension": {
      "name": "Time times concentration",
      "termUid": "CTTerm_000251"
    },
    "unitSubsets": [],
    "usConventionalUnit": false,
    "userInitials": "MT",
    "version": "1.0"
  },
  {
    "changeDescription": "Approved version",
    "comment": "",
    "conversionFactorToMaster": 1.0,
    "convertibleUnit": false,
    "ctUnits": [
      {
        "name": "Score",
        "termUid": "CTTerm_000272"
      }
    ],
    "definition": "score_x000D_\n",
    "displayUnit": true,
    "endDate": null,
    "legacyCode": "score",
    "libraryName": "Sponsor",
    "masterUnit": true,
    "molecularWeightConvExpon": 0,
    "name": "score",
    "order": 1830,
    "siUnit": false,
    "startDate": "2022-10-18T12:55:02.559226",
    "status": "Final",
    "templateParameter": true,
    "ucum": null,
    "uid": "UnitDefinition_000005",
    "unitDimension": {
      "name": "Score",
      "termUid": "C25338_SCORE"
    },
    "unitSubsets": [],
    "usConventionalUnit": false,
    "userInitials": "MT",
    "version": "1.0"
  },
  {
    "changeDescription": "Approved version",
    "comment": "",
    "conversionFactorToMaster": 1000000.0,
    "convertibleUnit": true,
    "ctUnits": [],
    "definition": "CDISC not found_x000D_\nMJ_x000D_\nJ=Joule, where Joule is defined as m2&#8729;kg&#8729;s^(&#8722;2)_x000D_\nM=10^6",
    "displayUnit": true,
    "endDate": null,
    "legacyCode": "MJ",
    "libraryName": "Sponsor",
    "masterUnit": false,
    "molecularWeightConvExpon": 0,
    "name": "MJ",
    "order": 52,
    "siUnit": true,
    "startDate": "2022-10-18T12:55:02.803902",
    "status": "Final",
    "templateParameter": true,
    "ucum": {
      "name": "MJ",
      "termUid": "DictionaryTerm_000085"
    },
    "uid": "UnitDefinition_000006",
    "unitDimension": {
      "name": "Energy",
      "termUid": "CTTerm_000231"
    },
    "unitSubsets": [],
    "usConventionalUnit": true,
    "userInitials": "MT",
    "version": "1.0"
  },
  {
    "changeDescription": "Approved version",
    "comment": "",
    "conversionFactorToMaster": 1.0,
    "convertibleUnit": true,
    "ctUnits": [],
    "definition": "Hours times nanomoles per liter (area under the curve).",
    "displayUnit": true,
    "endDate": null,
    "legacyCode": "h*nmol/L",
    "libraryName": "Sponsor",
    "masterUnit": true,
    "molecularWeightConvExpon": 1,
    "name": "h*nmol/L",
    "order": 100,
    "siUnit": true,
    "startDate": "2022-10-18T12:55:03.011624",
    "status": "Final",
    "templateParameter": true,
    "ucum": {
      "name": "h.nmol/L",
      "termUid": "DictionaryTerm_000112"
    },
    "uid": "UnitDefinition_000007",
    "unitDimension": {
      "name": "Time times concentration",
      "termUid": "CTTerm_000251"
    },
    "unitSubsets": [],
    "usConventionalUnit": true,
    "userInitials": "MT",
    "version": "1.0"
  },
  {
    "changeDescription": "Approved version",
    "comment": "",
    "conversionFactorToMaster": 10.0,
    "convertibleUnit": true,
    "ctUnits": [],
    "definition": "CDISC: Sponsor defined value",
    "displayUnit": true,
    "endDate": null,
    "legacyCode": "mg/dL/U",
    "libraryName": "Sponsor",
    "masterUnit": false,
    "molecularWeightConvExpon": 0,
    "name": "mg/dL/U",
    "order": 37,
    "siUnit": false,
    "startDate": "2022-10-18T12:55:03.269043",
    "status": "Final",
    "templateParameter": true,
    "ucum": {
      "name": "mg/dL/U",
      "termUid": "DictionaryTerm_000106"
    },
    "uid": "UnitDefinition_000008",
    "unitDimension": {
      "name": "Concentration per unit",
      "termUid": "CTTerm_000241"
    },
    "unitSubsets": [],
    "usConventionalUnit": true,
    "userInitials": "MT",
    "version": "1.0"
  },
  {
    "changeDescription": "Approved version",
    "comment": "",
    "conversionFactorToMaster": 1.0,
    "convertibleUnit": false,
    "ctUnits": [],
    "definition": "CDISC not found: Sponser defined._x000D_\nUnit mg/dL have CDISC code: C67015",
    "displayUnit": true,
    "endDate": null,
    "legacyCode": "mg/dL^2",
    "libraryName": "Sponsor",
    "masterUnit": false,
    "molecularWeightConvExpon": 0,
    "name": "mg/dL^2",
    "order": 35,
    "siUnit": false,
    "startDate": "2022-10-18T12:55:03.417600",
    "status": "Final",
    "templateParameter": true,
    "ucum": {
      "name": "mg/dL2",
      "termUid": "DictionaryTerm_000119"
    },
    "uid": "UnitDefinition_000009",
    "unitDimension": {
      "name": "Concentration",
      "termUid": "CTTerm_000244"
    },
    "unitSubsets": [],
    "usConventionalUnit": false,
    "userInitials": "MT",
    "version": "1.0"
  },
  {
    "changeDescription": "Approved version",
    "comment": "",
    "conversionFactorToMaster": 168.0,
    "convertibleUnit": true,
    "ctUnits": [],
    "definition": "U/h - Insulin pump delivery rate_x000D_\nCDISC not found_x000D_\n_x000D_\n[dose subset]",
    "displayUnit": true,
    "endDate": null,
    "legacyCode": "U/h",
    "libraryName": "Sponsor",
    "masterUnit": false,
    "molecularWeightConvExpon": 0,
    "name": "U/h",
    "order": 40,
    "siUnit": false,
    "startDate": "2022-10-18T12:55:03.636611",
    "status": "Final",
    "templateParameter": true,
    "ucum": {
      "name": "U/h",
      "termUid": "DictionaryTerm_000273"
    },
    "uid": "UnitDefinition_000010",
    "unitDimension": {
      "name": "Dose unit per time",
      "termUid": "CTTerm_000233"
    },
    "unitSubsets": [
      {
        "name": "Dose Unit",
        "termUid": "CTTerm_000088"
      }
    ],
    "usConventionalUnit": true,
    "userInitials": "MT",
    "version": "1.0"
  },
  {
    "changeDescription": "Approved version",
    "comment": "",
    "conversionFactorToMaster": 1000000000000.0,
    "convertibleUnit": true,
    "ctUnits": [],
    "definition": "Hours times kilograms per liter (area under the curve)",
    "displayUnit": true,
    "endDate": null,
    "legacyCode": "h*kg/L",
    "libraryName": "Sponsor",
    "masterUnit": false,
    "molecularWeightConvExpon": 0,
    "name": "h*kg/L",
    "order": 100,
    "siUnit": true,
    "startDate": "2022-10-18T12:55:03.856015",
    "status": "Final",
    "templateParameter": true,
    "ucum": {
      "name": "h.kg/L",
      "termUid": "DictionaryTerm_000093"
    },
    "uid": "UnitDefinition_000011",
    "unitDimension": {
      "name": "Time times concentration",
      "termUid": "CTTerm_000251"
    },
    "unitSubsets": [],
    "usConventionalUnit": true,
    "userInitials": "MT",
    "version": "1.0"
  },
  {
    "changeDescription": "Approved version",
    "comment": "",
    "conversionFactorToMaster": 0.001,
    "convertibleUnit": true,
    "ctUnits": [],
    "definition": "mU/kg, milli Units per Kilogram to be used for derived topic codes on dosing",
    "displayUnit": true,
    "endDate": null,
    "legacyCode": "mU/KG",
    "libraryName": "Sponsor",
    "masterUnit": false,
    "molecularWeightConvExpon": 0,
    "name": "mU/KG",
    "order": 1720,
    "siUnit": false,
    "startDate": "2022-10-18T12:55:04.118677",
    "status": "Final",
    "templateParameter": true,
    "ucum": null,
    "uid": "UnitDefinition_000012",
    "unitDimension": {
      "name": "Relative Dose Unit",
      "termUid": "CTTerm_000217"
    },
    "unitSubsets": [],
    "usConventionalUnit": true,
    "userInitials": "MT",
    "version": "1.0"
  },
  {
    "changeDescription": "Approved version",
    "comment": "",
    "conversionFactorToMaster": 1.0,
    "convertibleUnit": true,
    "ctUnits": [
      {
        "name": "% B/T",
        "termUid": "CTTerm_000255"
      }
    ],
    "definition": "Bound radioactive tracer (percent of total amount of added tracer)",
    "displayUnit": true,
    "endDate": null,
    "legacyCode": "% B/T",
    "libraryName": "Sponsor",
    "masterUnit": false,
    "molecularWeightConvExpon": 0,
    "name": "% B/T",
    "order": 1520,
    "siUnit": false,
    "startDate": "2022-10-18T12:55:04.418911",
    "status": "Final",
    "templateParameter": true,
    "ucum": {
      "name": "%",
      "termUid": "DictionaryTerm_000882"
    },
    "uid": "UnitDefinition_000013",
    "unitDimension": {
      "name": "Percentage",
      "termUid": "CTTerm_000221"
    },
    "unitSubsets": [],
    "usConventionalUnit": true,
    "userInitials": "MT",
    "version": "1.0"
  },
  {
    "changeDescription": "Approved version",
    "comment": "",
    "conversionFactorToMaster": 1.0,
    "convertibleUnit": false,
    "ctUnits": [
      {
        "name": "(pmol*h/L)/(U/kg)",
        "termUid": "CTTerm_000256"
      }
    ],
    "definition": "Concentration in pmol per hour per liter divided by dose in U per kg",
    "displayUnit": true,
    "endDate": null,
    "legacyCode": "(pmol*h/L)/(U/kg)",
    "libraryName": "Sponsor",
    "masterUnit": false,
    "molecularWeightConvExpon": 0,
    "name": "(pmol*h/L)/(U/kg)",
    "order": 1,
    "siUnit": false,
    "startDate": "2022-10-18T12:55:04.538488",
    "status": "Final",
    "templateParameter": true,
    "ucum": {
      "name": "(pmol.h/L)/(U/kg)",
      "termUid": "DictionaryTerm_000120"
    },
    "uid": "UnitDefinition_000014",
    "unitDimension": {
      "name": "Concentration per time per dose",
      "termUid": "CTTerm_000242"
    },
    "unitSubsets": [],
    "usConventionalUnit": false,
    "userInitials": "MT",
    "version": "1.0"
  },
  {
    "changeDescription": "Approved version",
    "comment": "",
    "conversionFactorToMaster": 1.0,
    "convertibleUnit": false,
    "ctUnits": [],
    "definition": "Unit for a counting variable, e.g. number of Aes or Hypos of a special kind_x000D_\n",
    "displayUnit": true,
    "endDate": null,
    "legacyCode": "COUNT",
    "libraryName": "Sponsor",
    "masterUnit": true,
    "molecularWeightConvExpon": 0,
    "name": "COUNT",
    "order": 39,
    "siUnit": false,
    "startDate": "2022-10-18T12:55:04.834048",
    "status": "Final",
    "templateParameter": true,
    "ucum": null,
    "uid": "UnitDefinition_000015",
    "unitDimension": {
      "name": "Count",
      "termUid": "CTTerm_000240"
    },
    "unitSubsets": [],
    "usConventionalUnit": false,
    "userInitials": "MT",
    "version": "1.0"
  },
  {
    "changeDescription": "Approved version",
    "comment": "",
    "conversionFactorToMaster": 1000.0,
    "convertibleUnit": true,
    "ctUnits": [
      {
        "name": "kJ",
        "termUid": "CTTerm_000265"
      }
    ],
    "definition": "CDISC not found_x000D_\nA SI unit of energy equal to 10E3 joules. (NCI)_x000D_\nA derived unit defined as the work done or energy required to exert a force of one newton for a distance of one meter. 1 KJ = 2.390 X 10-4 Kilocalorie. (CRCH)",
    "displayUnit": true,
    "endDate": null,
    "legacyCode": "kJ",
    "libraryName": "Sponsor",
    "masterUnit": false,
    "molecularWeightConvExpon": 0,
    "name": "kJ",
    "order": 52,
    "siUnit": true,
    "startDate": "2022-10-18T12:55:05.011591",
    "status": "Final",
    "templateParameter": true,
    "ucum": {
      "name": "kJ",
      "termUid": "DictionaryTerm_000078"
    },
    "uid": "UnitDefinition_000016",
    "unitDimension": {
      "name": "Energy",
      "termUid": "CTTerm_000231"
    },
    "unitSubsets": [],
    "usConventionalUnit": true,
    "userInitials": "MT",
    "version": "1.0"
  },
  {
    "changeDescription": "Approved version",
    "comment": "",
    "conversionFactorToMaster": 1.0,
    "convertibleUnit": false,
    "ctUnits": [],
    "definition": "Unit for measuring Rate Pressure Product. Blood pressure in mmHg, heart rate or pulse in Beat per Minute.",
    "displayUnit": true,
    "endDate": null,
    "legacyCode": "mmHg*BPM",
    "libraryName": "Sponsor",
    "masterUnit": false,
    "molecularWeightConvExpon": 0,
    "name": "mmHg*BPM",
    "order": 1550,
    "siUnit": false,
    "startDate": "2022-10-18T12:55:05.161552",
    "status": "Final",
    "templateParameter": true,
    "ucum": {
      "name": "mm[Hg].{beats}/min",
      "termUid": "DictionaryTerm_000088"
    },
    "uid": "UnitDefinition_000017",
    "unitDimension": {
      "name": "Pressure",
      "termUid": "CTTerm_000219"
    },
    "unitSubsets": [],
    "usConventionalUnit": false,
    "userInitials": "MT",
    "version": "1.0"
  },
  {
    "changeDescription": "Approved version",
    "comment": "",
    "conversionFactorToMaster": 1.0,
    "convertibleUnit": false,
    "ctUnits": [],
    "definition": "Picomoles per kilogram (area under the curve)._x000D_\n",
    "displayUnit": true,
    "endDate": null,
    "legacyCode": "pmol*min/kg",
    "libraryName": "Sponsor",
    "masterUnit": false,
    "molecularWeightConvExpon": 1,
    "name": "pmol*min/kg",
    "order": 36,
    "siUnit": true,
    "startDate": "2022-10-18T12:55:05.399644",
    "status": "Final",
    "templateParameter": true,
    "ucum": {
      "name": "pmol.min/kg",
      "termUid": "DictionaryTerm_000082"
    },
    "uid": "UnitDefinition_000018",
    "unitDimension": {
      "name": "Concentration per time",
      "termUid": "CTTerm_000243"
    },
    "unitSubsets": [],
    "usConventionalUnit": false,
    "userInitials": "MT",
    "version": "1.0"
  },
  {
    "changeDescription": "Approved version",
    "comment": "",
    "conversionFactorToMaster": 1.0,
    "convertibleUnit": true,
    "ctUnits": [],
    "definition": "h*pg/mL",
    "displayUnit": true,
    "endDate": null,
    "legacyCode": "h*pg/mL",
    "libraryName": "Sponsor",
    "masterUnit": false,
    "molecularWeightConvExpon": 0,
    "name": "h*pg/mL",
    "order": 100,
    "siUnit": true,
    "startDate": "2022-10-18T12:55:05.564423",
    "status": "Final",
    "templateParameter": true,
    "ucum": {
      "name": "h.pg/mL",
      "termUid": "DictionaryTerm_000117"
    },
    "uid": "UnitDefinition_000019",
    "unitDimension": {
      "name": "Time times concentration",
      "termUid": "CTTerm_000251"
    },
    "unitSubsets": [],
    "usConventionalUnit": true,
    "userInitials": "MT",
    "version": "1.0"
  },
  {
    "changeDescription": "Approved version",
    "comment": "",
    "conversionFactorToMaster": 1e-09,
    "convertibleUnit": true,
    "ctUnits": [],
    "definition": "pmol/min_x000D_\n_x000D_\nThis Unit should have is own Unit Dimension: substance flow rate, with Master: mol/day_x000D_\n_x000D_\n[dose subset]",
    "displayUnit": true,
    "endDate": null,
    "legacyCode": "pmol/min",
    "libraryName": "Sponsor",
    "masterUnit": false,
    "molecularWeightConvExpon": 1,
    "name": "pmol/min",
    "order": 120,
    "siUnit": true,
    "startDate": "2022-10-18T12:55:05.847239",
    "status": "Final",
    "templateParameter": true,
    "ucum": {
      "name": "pmol/min",
      "termUid": "DictionaryTerm_000953"
    },
    "uid": "UnitDefinition_000020",
    "unitDimension": {
      "name": "Mass Flow Rate",
      "termUid": "CTTerm_000226"
    },
    "unitSubsets": [
      {
        "name": "Dose Unit",
        "termUid": "CTTerm_000088"
      }
    ],
    "usConventionalUnit": true,
    "userInitials": "MT",
    "version": "1.0"
  },
  {
    "changeDescription": "Approved version",
    "comment": "",
    "conversionFactorToMaster": 1.0,
    "convertibleUnit": false,
    "ctUnits": [],
    "definition": "CDISC not found: sponsor defined._x000D_\npicomole/kilogram/minute_x000D_\n_x000D_\n[dose subset]",
    "displayUnit": true,
    "endDate": null,
    "legacyCode": "pmol/kg/min",
    "libraryName": "Sponsor",
    "masterUnit": false,
    "molecularWeightConvExpon": 0,
    "name": "pmol/kg/min",
    "order": 40,
    "siUnit": true,
    "startDate": "2022-10-18T12:55:06.108872",
    "status": "Final",
    "templateParameter": true,
    "ucum": {
      "name": "pmol/kg/min",
      "termUid": "DictionaryTerm_000073"
    },
    "uid": "UnitDefinition_000021",
    "unitDimension": {
      "name": "Dose Rate",
      "termUid": "CTTerm_000235"
    },
    "unitSubsets": [
      {
        "name": "Dose Unit",
        "termUid": "CTTerm_000088"
      }
    ],
    "usConventionalUnit": false,
    "userInitials": "MT",
    "version": "1.0"
  },
  {
    "changeDescription": "Approved version",
    "comment": "",
    "conversionFactorToMaster": 0.001,
    "convertibleUnit": true,
    "ctUnits": [],
    "definition": "h*pmol/L",
    "displayUnit": true,
    "endDate": null,
    "legacyCode": "h*pmol/L",
    "libraryName": "Sponsor",
    "masterUnit": false,
    "molecularWeightConvExpon": 1,
    "name": "h*pmol/L",
    "order": 100,
    "siUnit": true,
    "startDate": "2022-10-18T12:55:06.293356",
    "status": "Final",
    "templateParameter": true,
    "ucum": {
      "name": "h.pmol/L",
      "termUid": "DictionaryTerm_000080"
    },
    "uid": "UnitDefinition_000022",
    "unitDimension": {
      "name": "Time times concentration",
      "termUid": "CTTerm_000251"
    },
    "unitSubsets": [],
    "usConventionalUnit": true,
    "userInitials": "MT",
    "version": "1.0"
  },
  {
    "changeDescription": "Approved version",
    "comment": "",
    "conversionFactorToMaster": 1.0,
    "convertibleUnit": false,
    "ctUnits": [
      {
        "name": "DOSE STEP",
        "termUid": "CTTerm_000262"
      }
    ],
    "definition": "A one step increase in dose based on steps, clicks or increments of a combination product with two different units in a fixed ratio._x000D_\n _x000D_\n[dose subset]",
    "displayUnit": true,
    "endDate": null,
    "legacyCode": "DOSE STEP",
    "libraryName": "Sponsor",
    "masterUnit": false,
    "molecularWeightConvExpon": 0,
    "name": "DOSE STEP",
    "order": 1,
    "siUnit": false,
    "startDate": "2022-10-18T12:55:06.503825",
    "status": "Final",
    "templateParameter": true,
    "ucum": null,
    "uid": "UnitDefinition_000023",
    "unitDimension": null,
    "unitSubsets": [
      {
        "name": "Dose Unit",
        "termUid": "CTTerm_000088"
      }
    ],
    "usConventionalUnit": false,
    "userInitials": "MT",
    "version": "1.0"
  },
  {
    "changeDescription": "Approved version",
    "comment": "",
    "conversionFactorToMaster": 1.0,
    "convertibleUnit": false,
    "ctUnits": [
      {
        "name": "kUA/L",
        "termUid": "CTTerm_000271"
      }
    ],
    "definition": "CDISC not found: Sponser defined. _x000D_\nkilounits of allergen-specific antibodies per liter_x000D_\n",
    "displayUnit": true,
    "endDate": null,
    "legacyCode": "kUA/L",
    "libraryName": "Sponsor",
    "masterUnit": false,
    "molecularWeightConvExpon": 0,
    "name": "kUA/L",
    "order": 37,
    "siUnit": false,
    "startDate": "2022-10-18T12:55:06.979948",
    "status": "Final",
    "templateParameter": true,
    "ucum": null,
    "uid": "UnitDefinition_000024",
    "unitDimension": {
      "name": "Concentration per unit",
      "termUid": "CTTerm_000241"
    },
    "unitSubsets": [],
    "usConventionalUnit": false,
    "userInitials": "MT",
    "version": "1.0"
  },
  {
    "changeDescription": "Approved version",
    "comment": "",
    "conversionFactorToMaster": 10000000.0,
    "convertibleUnit": true,
    "ctUnits": [],
    "definition": "Hours times miligrams pr deciliter (area under the curve)",
    "displayUnit": true,
    "endDate": null,
    "legacyCode": "h*mg/dL",
    "libraryName": "Sponsor",
    "masterUnit": false,
    "molecularWeightConvExpon": 0,
    "name": "h*mg/dL",
    "order": 100,
    "siUnit": true,
    "startDate": "2022-10-18T12:55:07.111452",
    "status": "Final",
    "templateParameter": true,
    "ucum": {
      "name": "h.mg/dL",
      "termUid": "DictionaryTerm_000081"
    },
    "uid": "UnitDefinition_000025",
    "unitDimension": {
      "name": "Time times concentration",
      "termUid": "CTTerm_000251"
    },
    "unitSubsets": [],
    "usConventionalUnit": true,
    "userInitials": "MT",
    "version": "1.0"
  },
  {
    "changeDescription": "Approved version",
    "comment": "",
    "conversionFactorToMaster": 1.0,
    "convertibleUnit": true,
    "ctUnits": [
      {
        "name": "mU/kg/min",
        "termUid": "CTTerm_000268"
      }
    ],
    "definition": "-",
    "displayUnit": true,
    "endDate": null,
    "legacyCode": "mU/(kg*min)",
    "libraryName": "Sponsor",
    "masterUnit": true,
    "molecularWeightConvExpon": 0,
    "name": "mU/(kg*min)",
    "order": 40,
    "siUnit": false,
    "startDate": "2022-10-18T12:55:07.267780",
    "status": "Final",
    "templateParameter": true,
    "ucum": {
      "name": "mU/(kg.min)",
      "termUid": "DictionaryTerm_000096"
    },
    "uid": "UnitDefinition_000026",
    "unitDimension": {
      "name": "Dose Rate",
      "termUid": "CTTerm_000235"
    },
    "unitSubsets": [],
    "usConventionalUnit": true,
    "userInitials": "MT",
    "version": "1.0"
  },
  {
    "changeDescription": "Approved version",
    "comment": "",
    "conversionFactorToMaster": 16.6666666667,
    "convertibleUnit": true,
    "ctUnits": [],
    "definition": "gram per hour_x000D_\n_x000D_\n[dose subset]",
    "displayUnit": true,
    "endDate": null,
    "legacyCode": "g/h",
    "libraryName": "Sponsor",
    "masterUnit": false,
    "molecularWeightConvExpon": 0,
    "name": "g/h",
    "order": 120,
    "siUnit": true,
    "startDate": "2022-10-18T12:55:07.405469",
    "status": "Final",
    "templateParameter": true,
    "ucum": {
      "name": "g/h",
      "termUid": "DictionaryTerm_000339"
    },
    "uid": "UnitDefinition_000027",
    "unitDimension": {
      "name": "Mass Flow Rate",
      "termUid": "CTTerm_000226"
    },
    "unitSubsets": [
      {
        "name": "Dose Unit",
        "termUid": "CTTerm_000088"
      }
    ],
    "usConventionalUnit": true,
    "userInitials": "MT",
    "version": "1.0"
  },
  {
    "changeDescription": "Approved version",
    "comment": "",
    "conversionFactorToMaster": 1.0,
    "convertibleUnit": false,
    "ctUnits": [],
    "definition": "CDISC not found: Sponser defined. _x000D_\n(L/h)/(kg/m2) have CDISC code: C120739",
    "displayUnit": true,
    "endDate": null,
    "legacyCode": "L/(h*100kg)",
    "libraryName": "Sponsor",
    "masterUnit": false,
    "molecularWeightConvExpon": 0,
    "name": "L/(h*100kg)",
    "order": 60,
    "siUnit": true,
    "startDate": "2022-10-18T12:55:07.690256",
    "status": "Final",
    "templateParameter": true,
    "ucum": {
      "name": "L/(h.100.kg)",
      "termUid": "DictionaryTerm_000109"
    },
    "uid": "UnitDefinition_000028",
    "unitDimension": {
      "name": "Flow",
      "termUid": "CTTerm_000229"
    },
    "unitSubsets": [],
    "usConventionalUnit": false,
    "userInitials": "MT",
    "version": "1.0"
  },
  {
    "changeDescription": "Approved version",
    "comment": "",
    "conversionFactorToMaster": 1.0,
    "convertibleUnit": true,
    "ctUnits": [],
    "definition": "mmol/L/U",
    "displayUnit": true,
    "endDate": null,
    "legacyCode": "mmol/L/U",
    "libraryName": "Sponsor",
    "masterUnit": true,
    "molecularWeightConvExpon": 1,
    "name": "mmol/L/U",
    "order": 37,
    "siUnit": false,
    "startDate": "2022-10-18T12:55:07.835093",
    "status": "Final",
    "templateParameter": true,
    "ucum": {
      "name": "mmol/L/U",
      "termUid": "DictionaryTerm_000077"
    },
    "uid": "UnitDefinition_000029",
    "unitDimension": {
      "name": "Concentration per unit",
      "termUid": "CTTerm_000241"
    },
    "unitSubsets": [],
    "usConventionalUnit": true,
    "userInitials": "MT",
    "version": "1.0"
  },
  {
    "changeDescription": "Approved version",
    "comment": "",
    "conversionFactorToMaster": 16.666666667,
    "convertibleUnit": true,
    "ctUnits": [],
    "definition": "CDISC not found, kJ/min where _x000D_\nK=1000, J=Joule, where Joule is defined as m2 x kg x s^(- 2) and min=minutes",
    "displayUnit": true,
    "endDate": null,
    "legacyCode": "kJ/min",
    "libraryName": "Sponsor",
    "masterUnit": false,
    "molecularWeightConvExpon": 0,
    "name": "kJ/min",
    "order": 55,
    "siUnit": true,
    "startDate": "2022-10-18T12:55:08.017474",
    "status": "Final",
    "templateParameter": true,
    "ucum": {
      "name": "kJ/min",
      "termUid": "DictionaryTerm_000108"
    },
    "uid": "UnitDefinition_000030",
    "unitDimension": {
      "name": "Energy Expenditure",
      "termUid": "CTTerm_000230"
    },
    "unitSubsets": [],
    "usConventionalUnit": true,
    "userInitials": "MT",
    "version": "1.0"
  },
  {
    "changeDescription": "Approved version",
    "comment": "",
    "conversionFactorToMaster": 60.0,
    "convertibleUnit": true,
    "ctUnits": [],
    "definition": "No CDISC. Used for Pharmacokinetics measurement Lambda z_x000D_\n",
    "displayUnit": true,
    "endDate": null,
    "legacyCode": "1/m",
    "libraryName": "Sponsor",
    "masterUnit": false,
    "molecularWeightConvExpon": 0,
    "name": "1/m",
    "order": 50,
    "siUnit": false,
    "startDate": "2022-10-18T12:55:08.145555",
    "status": "Final",
    "templateParameter": true,
    "ucum": {
      "name": "1/m",
      "termUid": "DictionaryTerm_000102"
    },
    "uid": "UnitDefinition_000031",
    "unitDimension": {
      "name": "Elimination",
      "termUid": "CTTerm_000250"
    },
    "unitSubsets": [],
    "usConventionalUnit": true,
    "userInitials": "MT",
    "version": "1.0"
  },
  {
    "changeDescription": "Approved version",
    "comment": "",
    "conversionFactorToMaster": 1.0,
    "convertibleUnit": false,
    "ctUnits": [],
    "definition": "CDISC code: C73756_x000D_\nCDISC submission value: (L/h)/kg_x000D_\nCDISC synonym(s):  (L/h)/kg; (mL/h)/g; mL/g/h_x000D_\nCDISC definition: Milliliters per gram per hour or liters per hour (flow rate), divided by kilograms (weight) or milliliters per hour (flow rate), divided by grams (weight)._x000D_\nNCI preferred term: Milliliter per Gram per Hour_x000D_\n",
    "displayUnit": true,
    "endDate": null,
    "legacyCode": "(L/h)/kg",
    "libraryName": "Sponsor",
    "masterUnit": false,
    "molecularWeightConvExpon": 0,
    "name": "(L/h)/kg",
    "order": 75,
    "siUnit": true,
    "startDate": "2022-10-18T12:55:08.387694",
    "status": "Final",
    "templateParameter": true,
    "ucum": {
      "name": "L/h/kg",
      "termUid": "DictionaryTerm_000122"
    },
    "uid": "UnitDefinition_000032",
    "unitDimension": {
      "name": "Flow",
      "termUid": "CTTerm_000229"
    },
    "unitSubsets": [],
    "usConventionalUnit": false,
    "userInitials": "MT",
    "version": "1.0"
  },
  {
    "changeDescription": "Approved version",
    "comment": "",
    "conversionFactorToMaster": 1.0,
    "convertibleUnit": false,
    "ctUnits": [],
    "definition": "Hours times equivalent nanograms per milliliter (area under the curve).",
    "displayUnit": true,
    "endDate": null,
    "legacyCode": "h*ng Eq/mL",
    "libraryName": "Sponsor",
    "masterUnit": false,
    "molecularWeightConvExpon": 0,
    "name": "h*ng Eq/mL",
    "order": 100,
    "siUnit": false,
    "startDate": "2022-10-18T12:55:08.596911",
    "status": "Final",
    "templateParameter": true,
    "ucum": null,
    "uid": "UnitDefinition_000033",
    "unitDimension": {
      "name": "Time times concentration",
      "termUid": "CTTerm_000251"
    },
    "unitSubsets": [],
    "usConventionalUnit": false,
    "userInitials": "MT",
    "version": "1.0"
  },
  {
    "changeDescription": "Approved version",
    "comment": "",
    "conversionFactorToMaster": 0.1,
    "convertibleUnit": true,
    "ctUnits": [],
    "definition": "Unit for measurement of endpoint calculated as rate. The unit consists of the main unit per the time unit._x000D_\n_x000D_\nConversion Factor to Master: 100 mg / dL =100 mg / 100 mL = 1000 mg / L. Divide by molar mass glucose:   1000  mg / L / molecular weigth  = xxx mmol/L. Both master and standard unit has a division with hour, so that does not have impact on the conversion factor._x000D_\n",
    "displayUnit": true,
    "endDate": null,
    "legacyCode": "mmol/L/h",
    "libraryName": "Sponsor",
    "masterUnit": false,
    "molecularWeightConvExpon": 1,
    "name": "mmol/L/h",
    "order": 36,
    "siUnit": true,
    "startDate": "2022-10-18T12:55:08.873108",
    "status": "Final",
    "templateParameter": true,
    "ucum": {
      "name": "mmol/L/h",
      "termUid": "DictionaryTerm_000101"
    },
    "uid": "UnitDefinition_000034",
    "unitDimension": {
      "name": "Concentration per time",
      "termUid": "CTTerm_000243"
    },
    "unitSubsets": [],
    "usConventionalUnit": true,
    "userInitials": "MT",
    "version": "1.0"
  },
  {
    "changeDescription": "Approved version",
    "comment": "",
    "conversionFactorToMaster": 1.0,
    "convertibleUnit": true,
    "ctUnits": [],
    "definition": "mL/(h*kg) _x000D_\n",
    "displayUnit": true,
    "endDate": null,
    "legacyCode": "mL/(h*kg)",
    "libraryName": "Sponsor",
    "masterUnit": false,
    "molecularWeightConvExpon": 0,
    "name": "mL/(h*kg)",
    "order": 113,
    "siUnit": true,
    "startDate": "2022-10-18T12:55:09.364351",
    "status": "Final",
    "templateParameter": true,
    "ucum": {
      "name": "mL/(h.kg)",
      "termUid": "DictionaryTerm_000089"
    },
    "uid": "UnitDefinition_000035",
    "unitDimension": {
      "name": "Relative flow rate",
      "termUid": "CTTerm_000216"
    },
    "unitSubsets": [],
    "usConventionalUnit": true,
    "userInitials": "MT",
    "version": "1.0"
  },
  {
    "changeDescription": "Approved version",
    "comment": "",
    "conversionFactorToMaster": 1.0,
    "convertibleUnit": false,
    "ctUnits": [],
    "definition": "Sponsor defined: Concentration of one international unit multiplied with min per liter of system volume.",
    "displayUnit": true,
    "endDate": null,
    "legacyCode": "min*IU/L",
    "libraryName": "Sponsor",
    "masterUnit": false,
    "molecularWeightConvExpon": 0,
    "name": "min*IU/L",
    "order": 100,
    "siUnit": false,
    "startDate": "2022-10-18T12:55:09.563473",
    "status": "Final",
    "templateParameter": true,
    "ucum": {
      "name": "min.[IU]/L",
      "termUid": "DictionaryTerm_000079"
    },
    "uid": "UnitDefinition_000036",
    "unitDimension": {
      "name": "Time times concentration",
      "termUid": "CTTerm_000251"
    },
    "unitSubsets": [],
    "usConventionalUnit": false,
    "userInitials": "MT",
    "version": "1.0"
  },
  {
    "changeDescription": "Approved version",
    "comment": "",
    "conversionFactorToMaster": 1.0,
    "convertibleUnit": false,
    "ctUnits": [
      {
        "name": "(pmol/L)/(U/kg)",
        "termUid": "CTTerm_000254"
      }
    ],
    "definition": "Concentration in picomol(s) per liter divided by dose in U per kg",
    "displayUnit": true,
    "endDate": null,
    "legacyCode": "(pmol/L)/(U/kg)",
    "libraryName": "Sponsor",
    "masterUnit": false,
    "molecularWeightConvExpon": 0,
    "name": "(pmol/L)/(U/kg)",
    "order": 1,
    "siUnit": false,
    "startDate": "2022-10-18T12:55:09.858869",
    "status": "Final",
    "templateParameter": true,
    "ucum": {
      "name": "(pmol/L)/(U/kg)",
      "termUid": "DictionaryTerm_000072"
    },
    "uid": "UnitDefinition_000037",
    "unitDimension": {
      "name": "Concentration per unit",
      "termUid": "CTTerm_000241"
    },
    "unitSubsets": [],
    "usConventionalUnit": false,
    "userInitials": "MT",
    "version": "1.0"
  },
  {
    "changeDescription": "Approved version",
    "comment": "",
    "conversionFactorToMaster": 1.0,
    "convertibleUnit": false,
    "ctUnits": [
      {
        "name": "IU/mL/IU/kg",
        "termUid": "CTTerm_000264"
      }
    ],
    "definition": "IU/mL/IU/kg_x000D_\n_x000D_\nThe unit is used to calculate IR (incremental recovery) used in haemophilia. It is a PK variable and expresses how much factor activity (that be VIII or IX) increases per infused IU. For recombinant FVIII IR is usually 2%, meaning that FVIII activity in the patient will increase with 2% for every 1 IU infused per kg \u0096 meaning a HA patient receiving 50 IU/kg can expect FVIII activity of 100%_x000D_\n_x000D_\nThe unit for IR in medical papers is usually (IU/ml)/(IU/kg)_x000D_\nIU/ml \u0096 referring to the measured increase in activity_x000D_\nIU/kg \u0096 referring to the dose      _x000D_\n",
    "displayUnit": true,
    "endDate": null,
    "legacyCode": "IU/mL/IU/kg",
    "libraryName": "Sponsor",
    "masterUnit": false,
    "molecularWeightConvExpon": 0,
    "name": "IU/mL/IU/kg",
    "order": 2000,
    "siUnit": false,
    "startDate": "2022-10-18T12:55:10.626340",
    "status": "Final",
    "templateParameter": true,
    "ucum": {
      "name": "[IU]/mL/[IU]/kg",
      "termUid": "DictionaryTerm_000118"
    },
    "uid": "UnitDefinition_000038",
    "unitDimension": {
      "name": "U/IU Concentration",
      "termUid": "CTTerm_000210"
    },
    "unitSubsets": [],
    "usConventionalUnit": false,
    "userInitials": "MT",
    "version": "1.0"
  },
  {
    "changeDescription": "Approved version",
    "comment": "",
    "conversionFactorToMaster": 1.0,
    "convertibleUnit": true,
    "ctUnits": [
      {
        "name": "mU/kg/min",
        "termUid": "CTTerm_000268"
      }
    ],
    "definition": "CDISC : NOT FOUND_x000D_\n_x000D_\n[dose subset]",
    "displayUnit": true,
    "endDate": null,
    "legacyCode": "mU/kg/min",
    "libraryName": "Sponsor",
    "masterUnit": false,
    "molecularWeightConvExpon": 0,
    "name": "mU/kg/min",
    "order": 40,
    "siUnit": false,
    "startDate": "2022-10-18T12:55:10.772610",
    "status": "Final",
    "templateParameter": true,
    "ucum": {
      "name": "mU/kg/min",
      "termUid": "DictionaryTerm_000095"
    },
    "uid": "UnitDefinition_000039",
    "unitDimension": {
      "name": "Dose Rate",
      "termUid": "CTTerm_000235"
    },
    "unitSubsets": [
      {
        "name": "Dose Unit",
        "termUid": "CTTerm_000088"
      }
    ],
    "usConventionalUnit": true,
    "userInitials": "MT",
    "version": "1.0"
  },
  {
    "changeDescription": "Approved version",
    "comment": "",
    "conversionFactorToMaster": 1.0,
    "convertibleUnit": true,
    "ctUnits": [
      {
        "name": "U/week",
        "termUid": "CTTerm_000269"
      }
    ],
    "definition": "Units per week, e.g. units of alcohol/week_x000D_\n_x000D_\n[dose subset]",
    "displayUnit": true,
    "endDate": null,
    "legacyCode": "U/week",
    "libraryName": "Sponsor",
    "masterUnit": true,
    "molecularWeightConvExpon": 0,
    "name": "U/week",
    "order": 40,
    "siUnit": false,
    "startDate": "2022-10-18T12:55:11.393367",
    "status": "Final",
    "templateParameter": true,
    "ucum": {
      "name": "U/wk",
      "termUid": "DictionaryTerm_000074"
    },
    "uid": "UnitDefinition_000040",
    "unitDimension": {
      "name": "Dose unit per time",
      "termUid": "CTTerm_000233"
    },
    "unitSubsets": [
      {
        "name": "Dose Unit",
        "termUid": "CTTerm_000088"
      }
    ],
    "usConventionalUnit": true,
    "userInitials": "MT",
    "version": "1.0"
  },
  {
    "changeDescription": "Approved version",
    "comment": "",
    "conversionFactorToMaster": 1000.0,
    "convertibleUnit": true,
    "ctUnits": [],
    "definition": "PK Parameter Units of Measure. Hours times nanograms per milliliter.",
    "displayUnit": true,
    "endDate": null,
    "legacyCode": "h*ng/mL",
    "libraryName": "Sponsor",
    "masterUnit": false,
    "molecularWeightConvExpon": 0,
    "name": "h*ng/mL",
    "order": 100,
    "siUnit": true,
    "startDate": "2022-10-18T12:55:11.708595",
    "status": "Final",
    "templateParameter": true,
    "ucum": {
      "name": "h.ng/mL",
      "termUid": "DictionaryTerm_000099"
    },
    "uid": "UnitDefinition_000041",
    "unitDimension": {
      "name": "Time times concentration",
      "termUid": "CTTerm_000251"
    },
    "unitSubsets": [],
    "usConventionalUnit": true,
    "userInitials": "MT",
    "version": "1.0"
  },
  {
    "changeDescription": "Approved version",
    "comment": "",
    "conversionFactorToMaster": 1.0,
    "convertibleUnit": false,
    "ctUnits": [
      {
        "name": "no unit",
        "termUid": "CTTerm_000224"
      }
    ],
    "definition": "no unit",
    "displayUnit": false,
    "endDate": null,
    "legacyCode": "no unit",
    "libraryName": "Sponsor",
    "masterUnit": false,
    "molecularWeightConvExpon": 0,
    "name": "no unit",
    "order": 140,
    "siUnit": false,
    "startDate": "2022-10-18T12:55:12.619395",
    "status": "Final",
    "templateParameter": true,
    "ucum": null,
    "uid": "UnitDefinition_000042",
    "unitDimension": {
      "name": "no unit",
      "termUid": "CTTerm_000224"
    },
    "unitSubsets": [],
    "usConventionalUnit": false,
    "userInitials": "MT",
    "version": "1.0"
  },
  {
    "changeDescription": "Approved version",
    "comment": "",
    "conversionFactorToMaster": 16666.67,
    "convertibleUnit": true,
    "ctUnits": [],
    "definition": "CDISC code: C85727_x000D_\nCDISC submission value: min*ug/mL_x000D_\nCDISC synonym(s): ug*min/mL; min*mg/L; mg*min/L; min*mcg/mL; mcg*min/mL_x000D_\nCDISC definition: Minutes times micrograms per milliliter_x000D_\nNCI preferred term:Minute Times Microgram per Milliliter_x000D_\n",
    "displayUnit": true,
    "endDate": null,
    "legacyCode": "min*ug/mL",
    "libraryName": "Sponsor",
    "masterUnit": false,
    "molecularWeightConvExpon": 0,
    "name": "min*ug/mL",
    "order": 36,
    "siUnit": true,
    "startDate": "2022-10-18T12:55:13.039227",
    "status": "Final",
    "templateParameter": true,
    "ucum": {
      "name": "min.ug/mL",
      "termUid": "DictionaryTerm_000105"
    },
    "uid": "UnitDefinition_000043",
    "unitDimension": {
      "name": "Time times concentration",
      "termUid": "CTTerm_000251"
    },
    "unitSubsets": [],
    "usConventionalUnit": true,
    "userInitials": "MT",
    "version": "1.0"
  },
  {
    "changeDescription": "Approved version",
    "comment": "",
    "conversionFactorToMaster": 1.0,
    "convertibleUnit": false,
    "ctUnits": [],
    "definition": "1/field - use it only with caution, this is a microscope dependant unit. It is not available in CDISC. For trial NN9928-4048 it was confirmed by the laboratory that conversion between 1/field and /HPF is 1:1. This relation cannot be re-applied for other trial/laboratoires/microscopes without further information and confirmation from the lab used in the given trial.",
    "displayUnit": true,
    "endDate": null,
    "legacyCode": "1/field",
    "libraryName": "Sponsor",
    "masterUnit": false,
    "molecularWeightConvExpon": 0,
    "name": "1/field",
    "order": 999,
    "siUnit": false,
    "startDate": "2022-10-18T12:55:13.737130",
    "status": "Final",
    "templateParameter": true,
    "ucum": null,
    "uid": "UnitDefinition_000044",
    "unitDimension": {
      "name": "Microscope dependent counts",
      "termUid": "CTTerm_000225"
    },
    "unitSubsets": [],
    "usConventionalUnit": false,
    "userInitials": "MT",
    "version": "1.0"
  },
  {
    "changeDescription": "Approved version",
    "comment": "",
    "conversionFactorToMaster": 1.67e-05,
    "convertibleUnit": true,
    "ctUnits": [],
    "definition": "Minutes times picomoles per liter (area under the curve). _x000D_\n",
    "displayUnit": true,
    "endDate": null,
    "legacyCode": "min*pmol/L",
    "libraryName": "Sponsor",
    "masterUnit": false,
    "molecularWeightConvExpon": 1,
    "name": "min*pmol/L",
    "order": 100,
    "siUnit": true,
    "startDate": "2022-10-18T12:55:14.445900",
    "status": "Final",
    "templateParameter": true,
    "ucum": {
      "name": "min.pmol/L",
      "termUid": "DictionaryTerm_000098"
    },
    "uid": "UnitDefinition_000045",
    "unitDimension": {
      "name": "Time times concentration",
      "termUid": "CTTerm_000251"
    },
    "unitSubsets": [],
    "usConventionalUnit": true,
    "userInitials": "MT",
    "version": "1.0"
  },
  {
    "changeDescription": "Approved version",
    "comment": "",
    "conversionFactorToMaster": 1.0,
    "convertibleUnit": true,
    "ctUnits": [],
    "definition": "Steps per hour",
    "displayUnit": true,
    "endDate": null,
    "legacyCode": "Steps/h",
    "libraryName": "Sponsor",
    "masterUnit": false,
    "molecularWeightConvExpon": 0,
    "name": "Steps/h",
    "order": 39,
    "siUnit": false,
    "startDate": "2022-10-18T12:55:15.452093",
    "status": "Final",
    "templateParameter": true,
    "ucum": {
      "name": "/h",
      "termUid": "DictionaryTerm_000858"
    },
    "uid": "UnitDefinition_000046",
    "unitDimension": {
      "name": "Count per time",
      "termUid": "CTTerm_000239"
    },
    "unitSubsets": [],
    "usConventionalUnit": true,
    "userInitials": "MT",
    "version": "1.0"
  },
  {
    "changeDescription": "Approved version",
    "comment": "",
    "conversionFactorToMaster": 1.0,
    "convertibleUnit": false,
    "ctUnits": [],
    "definition": "Sponsor defined: Millimeters multiplied with Hours_x000D_\n",
    "displayUnit": true,
    "endDate": null,
    "legacyCode": "mm*h",
    "libraryName": "Sponsor",
    "masterUnit": false,
    "molecularWeightConvExpon": 0,
    "name": "mm*h",
    "order": 120,
    "siUnit": true,
    "startDate": "2022-10-18T12:55:15.912489",
    "status": "Final",
    "templateParameter": true,
    "ucum": {
      "name": "mm/h",
      "termUid": "DictionaryTerm_000665"
    },
    "uid": "UnitDefinition_000047",
    "unitDimension": {
      "name": "Length per time",
      "termUid": "CTTerm_000227"
    },
    "unitSubsets": [],
    "usConventionalUnit": false,
    "userInitials": "MT",
    "version": "1.0"
  },
  {
    "changeDescription": "Approved version",
    "comment": "",
    "conversionFactorToMaster": 1000000.0,
    "convertibleUnit": true,
    "ctUnits": [],
    "definition": "h*mmol/L",
    "displayUnit": true,
    "endDate": null,
    "legacyCode": "h*mmol/L",
    "libraryName": "Sponsor",
    "masterUnit": false,
    "molecularWeightConvExpon": 1,
    "name": "h*mmol/L",
    "order": 100,
    "siUnit": true,
    "startDate": "2022-10-18T12:55:16.008705",
    "status": "Final",
    "templateParameter": true,
    "ucum": {
      "name": "h.mmol/L",
      "termUid": "DictionaryTerm_000126"
    },
    "uid": "UnitDefinition_000048",
    "unitDimension": {
      "name": "Time times concentration",
      "termUid": "CTTerm_000251"
    },
    "unitSubsets": [],
    "usConventionalUnit": true,
    "userInitials": "MT",
    "version": "1.0"
  },
  {
    "changeDescription": "Approved version",
    "comment": "",
    "conversionFactorToMaster": 1.0,
    "convertibleUnit": false,
    "ctUnits": [],
    "definition": "E%_x000D_\nIs used for energy content in food",
    "displayUnit": true,
    "endDate": null,
    "legacyCode": "E%",
    "libraryName": "Sponsor",
    "masterUnit": false,
    "molecularWeightConvExpon": 0,
    "name": "E%",
    "order": 1520,
    "siUnit": false,
    "startDate": "2022-10-18T12:55:16.228889",
    "status": "Final",
    "templateParameter": true,
    "ucum": null,
    "uid": "UnitDefinition_000049",
    "unitDimension": {
      "name": "Percentage",
      "termUid": "CTTerm_000221"
    },
    "unitSubsets": [],
    "usConventionalUnit": false,
    "userInitials": "MT",
    "version": "1.0"
  },
  {
    "changeDescription": "Approved version",
    "comment": "",
    "conversionFactorToMaster": 1.0,
    "convertibleUnit": false,
    "ctUnits": [],
    "definition": "Picomoles pr minutes millimoles per kilogram (area under the curve)_x000D_\n",
    "displayUnit": true,
    "endDate": null,
    "legacyCode": "pmol*l/(min*mmol*kg)",
    "libraryName": "Sponsor",
    "masterUnit": false,
    "molecularWeightConvExpon": 1,
    "name": "pmol*l/(min*mmol*kg)",
    "order": 36,
    "siUnit": true,
    "startDate": "2022-10-18T12:55:16.329911",
    "status": "Final",
    "templateParameter": true,
    "ucum": {
      "name": "pmol.l/(min.mmol.kg)",
      "termUid": "DictionaryTerm_000070"
    },
    "uid": "UnitDefinition_000050",
    "unitDimension": {
      "name": "Concentration per time",
      "termUid": "CTTerm_000243"
    },
    "unitSubsets": [],
    "usConventionalUnit": false,
    "userInitials": "MT",
    "version": "1.0"
  },
  {
    "changeDescription": "Approved version",
    "comment": "",
    "conversionFactorToMaster": 1.0,
    "convertibleUnit": false,
    "ctUnits": [
      {
        "name": "/regimen period",
        "termUid": "CTTerm_000258"
      }
    ],
    "definition": "Sponsor Defined: /regimen period",
    "displayUnit": true,
    "endDate": null,
    "legacyCode": "/regimen period",
    "libraryName": "Sponsor",
    "masterUnit": false,
    "molecularWeightConvExpon": 0,
    "name": "/regimen period",
    "order": 39,
    "siUnit": false,
    "startDate": "2022-10-18T12:55:16.524547",
    "status": "Final",
    "templateParameter": true,
    "ucum": null,
    "uid": "UnitDefinition_000051",
    "unitDimension": {
      "name": "Count",
      "termUid": "CTTerm_000240"
    },
    "unitSubsets": [],
    "usConventionalUnit": false,
    "userInitials": "MT",
    "version": "1.0"
  },
  {
    "changeDescription": "Approved version",
    "comment": "",
    "conversionFactorToMaster": 0.01667,
    "convertibleUnit": true,
    "ctUnits": [
      {
        "name": "Minute Times Picomole per Milliliter",
        "termUid": "C85735_min*nmol/L"
      }
    ],
    "definition": "Minutes times nanomoles per liter (area under the curve).",
    "displayUnit": true,
    "endDate": null,
    "legacyCode": "min*nmol/L",
    "libraryName": "Sponsor",
    "masterUnit": false,
    "molecularWeightConvExpon": 1,
    "name": "min*nmol/L",
    "order": 100,
    "siUnit": true,
    "startDate": "2022-10-18T12:55:16.693593",
    "status": "Final",
    "templateParameter": true,
    "ucum": {
      "name": "min.nmol/L",
      "termUid": "DictionaryTerm_000110"
    },
    "uid": "UnitDefinition_000052",
    "unitDimension": {
      "name": "Time times concentration",
      "termUid": "CTTerm_000251"
    },
    "unitSubsets": [],
    "usConventionalUnit": true,
    "userInitials": "MT",
    "version": "1.0"
  },
  {
    "changeDescription": "Approved version",
    "comment": "",
    "conversionFactorToMaster": 60000000.0,
    "convertibleUnit": true,
    "ctUnits": [],
    "definition": "A unit of substance flow rate equal to one nanomole per hour.(NCI)_x000D_\n_x000D_\n[dose subset]",
    "displayUnit": true,
    "endDate": null,
    "legacyCode": "nmol/h",
    "libraryName": "Sponsor",
    "masterUnit": false,
    "molecularWeightConvExpon": 0,
    "name": "nmol/h",
    "order": 1,
    "siUnit": false,
    "startDate": "2022-10-18T12:55:16.923268",
    "status": "Final",
    "templateParameter": true,
    "ucum": null,
    "uid": "UnitDefinition_000053",
    "unitDimension": {
      "name": "Mass Flow Rate",
      "termUid": "CTTerm_000226"
    },
    "unitSubsets": [
      {
        "name": "Dose Unit",
        "termUid": "CTTerm_000088"
      }
    ],
    "usConventionalUnit": true,
    "userInitials": "MT",
    "version": "1.0"
  },
  {
    "changeDescription": "Approved version",
    "comment": "",
    "conversionFactorToMaster": 1.0,
    "convertibleUnit": true,
    "ctUnits": [],
    "definition": "mg/dL/h",
    "displayUnit": true,
    "endDate": null,
    "legacyCode": "mg/dL/h",
    "libraryName": "Sponsor",
    "masterUnit": true,
    "molecularWeightConvExpon": 0,
    "name": "mg/dL/h",
    "order": 37,
    "siUnit": true,
    "startDate": "2022-10-18T12:55:17.098212",
    "status": "Final",
    "templateParameter": true,
    "ucum": {
      "name": "mg/dL/h",
      "termUid": "DictionaryTerm_000083"
    },
    "uid": "UnitDefinition_000054",
    "unitDimension": {
      "name": "Concentration per time",
      "termUid": "CTTerm_000243"
    },
    "unitSubsets": [],
    "usConventionalUnit": true,
    "userInitials": "MT",
    "version": "1.0"
  },
  {
    "changeDescription": "Approved version",
    "comment": "",
    "conversionFactorToMaster": 1.0,
    "convertibleUnit": true,
    "ctUnits": [],
    "definition": "mL/h/kg",
    "displayUnit": true,
    "endDate": null,
    "legacyCode": "mL/h/kg",
    "libraryName": "Sponsor",
    "masterUnit": true,
    "molecularWeightConvExpon": 0,
    "name": "mL/h/kg",
    "order": 1730,
    "siUnit": true,
    "startDate": "2022-10-18T12:55:17.299775",
    "status": "Final",
    "templateParameter": true,
    "ucum": {
      "name": "mL/h/kg",
      "termUid": "DictionaryTerm_000090"
    },
    "uid": "UnitDefinition_000055",
    "unitDimension": {
      "name": "Relative flow rate",
      "termUid": "CTTerm_000216"
    },
    "unitSubsets": [],
    "usConventionalUnit": true,
    "userInitials": "MT",
    "version": "1.0"
  },
  {
    "changeDescription": "Approved version",
    "comment": "",
    "conversionFactorToMaster": 16666.67,
    "convertibleUnit": true,
    "ctUnits": [],
    "definition": "Minutes times millimoles per liter (area under the curve).",
    "displayUnit": true,
    "endDate": null,
    "legacyCode": "min*mmol/L",
    "libraryName": "Sponsor",
    "masterUnit": false,
    "molecularWeightConvExpon": 1,
    "name": "min*mmol/L",
    "order": 100,
    "siUnit": true,
    "startDate": "2022-10-18T12:55:17.561778",
    "status": "Final",
    "templateParameter": true,
    "ucum": {
      "name": "min.mmol/L",
      "termUid": "DictionaryTerm_000091"
    },
    "uid": "UnitDefinition_000056",
    "unitDimension": {
      "name": "Time times concentration",
      "termUid": "CTTerm_000251"
    },
    "unitSubsets": [],
    "usConventionalUnit": true,
    "userInitials": "MT",
    "version": "1.0"
  },
  {
    "changeDescription": "Approved version",
    "comment": "",
    "conversionFactorToMaster": 1000000.0,
    "convertibleUnit": true,
    "ctUnits": [],
    "definition": "Hours times micrograms (area under the curve), divided by mililiter",
    "displayUnit": false,
    "endDate": null,
    "legacyCode": "h*ug/mL",
    "libraryName": "Sponsor",
    "masterUnit": false,
    "molecularWeightConvExpon": 0,
    "name": "h*ug/mL",
    "order": 100,
    "siUnit": true,
    "startDate": "2022-10-18T12:55:17.685812",
    "status": "Final",
    "templateParameter": true,
    "ucum": {
      "name": "h.ug/mL",
      "termUid": "DictionaryTerm_000125"
    },
    "uid": "UnitDefinition_000057",
    "unitDimension": {
      "name": "Time times concentration",
      "termUid": "CTTerm_000251"
    },
    "unitSubsets": [],
    "usConventionalUnit": true,
    "userInitials": "MT",
    "version": "1.0"
  },
  {
    "changeDescription": "Approved version",
    "comment": "",
    "conversionFactorToMaster": 1.0,
    "convertibleUnit": false,
    "ctUnits": [
      {
        "name": "dB/m",
        "termUid": "CTTerm_000260"
      }
    ],
    "definition": "Sponsor Defined: dB/m - decilbel per meter",
    "displayUnit": true,
    "endDate": null,
    "legacyCode": "dB/m",
    "libraryName": "Sponsor",
    "masterUnit": true,
    "molecularWeightConvExpon": 0,
    "name": "dB/m",
    "order": 40,
    "siUnit": true,
    "startDate": "2022-10-18T12:55:17.958213",
    "status": "Final",
    "templateParameter": true,
    "ucum": null,
    "uid": "UnitDefinition_000058",
    "unitDimension": {
      "name": "Decibel per length",
      "termUid": "CTTerm_000238"
    },
    "unitSubsets": [],
    "usConventionalUnit": false,
    "userInitials": "MT",
    "version": "1.0"
  },
  {
    "changeDescription": "Approved version",
    "comment": "",
    "conversionFactorToMaster": 1.0,
    "convertibleUnit": false,
    "ctUnits": [
      {
        "name": "g/week",
        "termUid": "CTTerm_000263"
      }
    ],
    "definition": "Gram per week, e.g. gram of alcohol/week. This is more precise than Units of alcohol per week_x000D_\n_x000D_\n[dose subset]",
    "displayUnit": true,
    "endDate": null,
    "legacyCode": "g/week",
    "libraryName": "Sponsor",
    "masterUnit": false,
    "molecularWeightConvExpon": 0,
    "name": "g/week",
    "order": 1,
    "siUnit": false,
    "startDate": "2022-10-18T12:55:18.111269",
    "status": "Final",
    "templateParameter": true,
    "ucum": {
      "name": "g/wk",
      "termUid": "DictionaryTerm_000115"
    },
    "uid": "UnitDefinition_000059",
    "unitDimension": {
      "name": "Dose unit per time",
      "termUid": "CTTerm_000233"
    },
    "unitSubsets": [
      {
        "name": "Dose Unit",
        "termUid": "CTTerm_000088"
      }
    ],
    "usConventionalUnit": false,
    "userInitials": "MT",
    "version": "1.0"
  },
  {
    "changeDescription": "Approved version",
    "comment": "",
    "conversionFactorToMaster": 0.01667,
    "convertibleUnit": true,
    "ctUnits": [
      {
        "name": "Minute Times Picomole per Milliliter",
        "termUid": "C85735_min*nmol/L"
      }
    ],
    "definition": "NOTE: PLEASE AVOID ATTACHING THIS UNIT TO ANY TOPIC CODE_x000D_\n_x000D_\nCDISC code: C85735_x000D_\nCDISC submission value: min*nmol/L",
    "displayUnit": true,
    "endDate": null,
    "legacyCode": "nM*min",
    "libraryName": "Sponsor",
    "masterUnit": false,
    "molecularWeightConvExpon": 1,
    "name": "nM*min",
    "order": 35,
    "siUnit": true,
    "startDate": "2022-10-18T12:55:18.274537",
    "status": "Final",
    "templateParameter": true,
    "ucum": {
      "name": "min.nmol/L",
      "termUid": "DictionaryTerm_000110"
    },
    "uid": "UnitDefinition_000060",
    "unitDimension": {
      "name": "Time times concentration",
      "termUid": "CTTerm_000251"
    },
    "unitSubsets": [],
    "usConventionalUnit": true,
    "userInitials": "MT",
    "version": "1.0"
  },
  {
    "changeDescription": "Approved version",
    "comment": "",
    "conversionFactorToMaster": 1.0,
    "convertibleUnit": false,
    "ctUnits": [],
    "definition": "Kilo Joule pr kg",
    "displayUnit": true,
    "endDate": null,
    "legacyCode": "kJ/kg",
    "libraryName": "Sponsor",
    "masterUnit": false,
    "molecularWeightConvExpon": 0,
    "name": "kJ/kg",
    "order": 50,
    "siUnit": true,
    "startDate": "2022-10-18T12:55:18.444251",
    "status": "Final",
    "templateParameter": true,
    "ucum": {
      "name": "kJ/kg",
      "termUid": "DictionaryTerm_000121"
    },
    "uid": "UnitDefinition_000061",
    "unitDimension": {
      "name": "Energy",
      "termUid": "CTTerm_000231"
    },
    "unitSubsets": [],
    "usConventionalUnit": false,
    "userInitials": "MT",
    "version": "1.0"
  },
  {
    "changeDescription": "Approved version",
    "comment": "",
    "conversionFactorToMaster": 1.0,
    "convertibleUnit": false,
    "ctUnits": [],
    "definition": "CDISC not found: Sponser defined. _x000D_\nUnit mmol/L have CDISC code: C64387_x000D_\n",
    "displayUnit": true,
    "endDate": null,
    "legacyCode": "mmol/L^2",
    "libraryName": "Sponsor",
    "masterUnit": false,
    "molecularWeightConvExpon": 1,
    "name": "mmol/L^2",
    "order": 35,
    "siUnit": false,
    "startDate": "2022-10-18T12:55:18.619652",
    "status": "Final",
    "templateParameter": true,
    "ucum": {
      "name": "mmol/L2",
      "termUid": "DictionaryTerm_000094"
    },
    "uid": "UnitDefinition_000062",
    "unitDimension": {
      "name": "Concentration",
      "termUid": "CTTerm_000244"
    },
    "unitSubsets": [],
    "usConventionalUnit": false,
    "userInitials": "MT",
    "version": "1.0"
  },
  {
    "changeDescription": "Approved version",
    "comment": "",
    "conversionFactorToMaster": 24000000.0,
    "convertibleUnit": true,
    "ctUnits": [],
    "definition": "Days times micrograms per milliliter (area under the curve)._x000D_\nCDISC code: C85586_x000D_\nCDISC submission value: day*ug/mL_x000D_\nCDISC synonym(s):_x000D_\nCDISC definition: Days times micrograms per milliliter (area under the curve)._x000D_\nNCI preferred term: Day Times Microgram per Milliliter_x000D_\n_x000D_\n",
    "displayUnit": true,
    "endDate": null,
    "legacyCode": "day*ug/mL",
    "libraryName": "Sponsor",
    "masterUnit": false,
    "molecularWeightConvExpon": 0,
    "name": "day*ug/mL",
    "order": 2001,
    "siUnit": true,
    "startDate": "2022-10-18T12:55:18.740665",
    "status": "Final",
    "templateParameter": true,
    "ucum": {
      "name": "d.ug/mL",
      "termUid": "DictionaryTerm_000092"
    },
    "uid": "UnitDefinition_000063",
    "unitDimension": {
      "name": "Time times concentration",
      "termUid": "CTTerm_000251"
    },
    "unitSubsets": [],
    "usConventionalUnit": true,
    "userInitials": "MT",
    "version": "1.0"
  },
  {
    "changeDescription": "Approved version",
    "comment": "",
    "conversionFactorToMaster": 1e-09,
    "convertibleUnit": true,
    "ctUnits": [],
    "definition": "Picomoles pr kilogram_x000D_\n",
    "displayUnit": true,
    "endDate": null,
    "legacyCode": "pmol/kg",
    "libraryName": "Sponsor",
    "masterUnit": false,
    "molecularWeightConvExpon": 1,
    "name": "pmol/kg",
    "order": 35,
    "siUnit": true,
    "startDate": "2022-10-18T12:55:18.912258",
    "status": "Final",
    "templateParameter": true,
    "ucum": {
      "name": "pmol/kg",
      "termUid": "DictionaryTerm_000097"
    },
    "uid": "UnitDefinition_000064",
    "unitDimension": {
      "name": "Mass Fraction",
      "termUid": "C67470_MASS FRACTION"
    },
    "unitSubsets": [],
    "usConventionalUnit": true,
    "userInitials": "MT",
    "version": "1.0"
  },
  {
    "changeDescription": "Approved version",
    "comment": "",
    "conversionFactorToMaster": 168.0,
    "convertibleUnit": true,
    "ctUnits": [],
    "definition": "U/hr - Insulin pump delivery rate (do not use)_x000D_\nCDISC not found _x000D_\n_x000D_\n",
    "displayUnit": true,
    "endDate": null,
    "legacyCode": "U/hr",
    "libraryName": "Sponsor",
    "masterUnit": false,
    "molecularWeightConvExpon": 0,
    "name": "U/hr",
    "order": 40,
    "siUnit": false,
    "startDate": "2022-10-18T12:55:19.184453",
    "status": "Final",
    "templateParameter": true,
    "ucum": {
      "name": "U/h",
      "termUid": "DictionaryTerm_000273"
    },
    "uid": "UnitDefinition_000065",
    "unitDimension": {
      "name": "Dose unit per time",
      "termUid": "CTTerm_000233"
    },
    "unitSubsets": [],
    "usConventionalUnit": true,
    "userInitials": "MT",
    "version": "1.0"
  },
  {
    "changeDescription": "Approved version",
    "comment": "",
    "conversionFactorToMaster": 1.0,
    "convertibleUnit": true,
    "ctUnits": [],
    "definition": "osmoles per kilogram_x000D_\n",
    "displayUnit": true,
    "endDate": null,
    "legacyCode": "Osm/kg",
    "libraryName": "Sponsor",
    "masterUnit": true,
    "molecularWeightConvExpon": 0,
    "name": "Osm/kg",
    "order": 115,
    "siUnit": false,
    "startDate": "2022-10-18T12:55:19.419816",
    "status": "Final",
    "templateParameter": true,
    "ucum": {
      "name": "osm/kg",
      "termUid": "DictionaryTerm_000826"
    },
    "uid": "UnitDefinition_000066",
    "unitDimension": {
      "name": "Osmolality",
      "termUid": "CTTerm_000222"
    },
    "unitSubsets": [],
    "usConventionalUnit": true,
    "userInitials": "MT",
    "version": "1.0"
  },
  {
    "changeDescription": "Approved version",
    "comment": "",
    "conversionFactorToMaster": 1.0,
    "convertibleUnit": false,
    "ctUnits": [],
    "definition": "CDISC not found: _x000D_\nSponser defined. _x000D_\nDisintegration per Minute per Milliliter",
    "displayUnit": true,
    "endDate": null,
    "legacyCode": "dpm/umol",
    "libraryName": "Sponsor",
    "masterUnit": false,
    "molecularWeightConvExpon": 0,
    "name": "dpm/umol",
    "order": 2150,
    "siUnit": false,
    "startDate": "2022-10-18T12:55:19.566700",
    "status": "Final",
    "templateParameter": true,
    "ucum": null,
    "uid": "UnitDefinition_000067",
    "unitDimension": {
      "name": "Volumetric radioactivity",
      "termUid": "CTTerm_000209"
    },
    "unitSubsets": [],
    "usConventionalUnit": false,
    "userInitials": "MT",
    "version": "1.0"
  },
  {
    "changeDescription": "Approved version",
    "comment": "",
    "conversionFactorToMaster": 0.001,
    "convertibleUnit": true,
    "ctUnits": [],
    "definition": "Sponsor defined: ugEq/mL, Microgram Equivalent per Milliliter_x000D_\n",
    "displayUnit": true,
    "endDate": null,
    "legacyCode": "ugEq/mL",
    "libraryName": "Sponsor",
    "masterUnit": false,
    "molecularWeightConvExpon": 1,
    "name": "ugEq/mL",
    "order": 35,
    "siUnit": false,
    "startDate": "2022-10-18T12:55:19.818596",
    "status": "Final",
    "templateParameter": true,
    "ucum": null,
    "uid": "UnitDefinition_000068",
    "unitDimension": {
      "name": "Concentration",
      "termUid": "CTTerm_000244"
    },
    "unitSubsets": [],
    "usConventionalUnit": true,
    "userInitials": "MT",
    "version": "1.0"
  },
  {
    "changeDescription": "Approved version",
    "comment": "",
    "conversionFactorToMaster": 16.67,
    "convertibleUnit": true,
    "ctUnits": [],
    "definition": "CDISC code: C85732_x000D_\nCDISC submission value: min*ng/mL_x000D_\nCDISC synonym(s): ng*min/mL; min*ug/L; ug*min/L; min*ng/mL_x000D_\nCDISC definition: Minutes times nanograms per milliliter._x000D_\nNCI preferred term: Minute Times Nanogram per Milliliter\"",
    "displayUnit": true,
    "endDate": null,
    "legacyCode": "min*ng/mL",
    "libraryName": "Sponsor",
    "masterUnit": false,
    "molecularWeightConvExpon": 0,
    "name": "min*ng/mL",
    "order": 36,
    "siUnit": true,
    "startDate": "2022-10-18T12:55:19.853529",
    "status": "Final",
    "templateParameter": true,
    "ucum": {
      "name": "min.ng/mL",
      "termUid": "DictionaryTerm_000113"
    },
    "uid": "UnitDefinition_000069",
    "unitDimension": {
      "name": "Time times concentration",
      "termUid": "CTTerm_000251"
    },
    "unitSubsets": [],
    "usConventionalUnit": true,
    "userInitials": "MT",
    "version": "1.0"
  },
  {
    "changeDescription": "Approved version",
    "comment": "",
    "conversionFactorToMaster": 0.1,
    "convertibleUnit": true,
    "ctUnits": [
      {
        "name": "0/00",
        "termUid": "CTTerm_000259"
      }
    ],
    "definition": "CDISC not found. Equal to pro mille = per 1000 red blood cells",
    "displayUnit": true,
    "endDate": null,
    "legacyCode": "0/00",
    "libraryName": "Sponsor",
    "masterUnit": false,
    "molecularWeightConvExpon": 0,
    "name": "0/00",
    "order": 1520,
    "siUnit": false,
    "startDate": "2022-10-18T12:55:20.069800",
    "status": "Final",
    "templateParameter": true,
    "ucum": {
      "name": "0/00",
      "termUid": "DictionaryTerm_000116"
    },
    "uid": "UnitDefinition_000070",
    "unitDimension": {
      "name": "Percentage",
      "termUid": "CTTerm_000221"
    },
    "unitSubsets": [],
    "usConventionalUnit": true,
    "userInitials": "MT",
    "version": "1.0"
  },
  {
    "changeDescription": "Approved version",
    "comment": "",
    "conversionFactorToMaster": 0.006,
    "convertibleUnit": true,
    "ctUnits": [
      {
        "name": "mL/Week",
        "termUid": "CTTerm_000266"
      }
    ],
    "definition": "Sponsor defined: mL/week_x000D_\n",
    "displayUnit": true,
    "endDate": null,
    "legacyCode": "mL/week",
    "libraryName": "Sponsor",
    "masterUnit": false,
    "molecularWeightConvExpon": 0,
    "name": "mL/week",
    "order": 60,
    "siUnit": false,
    "startDate": "2022-10-18T12:55:20.259762",
    "status": "Final",
    "templateParameter": true,
    "ucum": {
      "name": "mL/wk",
      "termUid": "DictionaryTerm_000103"
    },
    "uid": "UnitDefinition_000071",
    "unitDimension": {
      "name": "Flow",
      "termUid": "CTTerm_000229"
    },
    "unitSubsets": [],
    "usConventionalUnit": true,
    "userInitials": "MT",
    "version": "1.0"
  },
  {
    "changeDescription": "Approved version",
    "comment": "",
    "conversionFactorToMaster": 1000000000000.0,
    "convertibleUnit": true,
    "ctUnits": [
      {
        "name": "mm2/usec",
        "termUid": "CTTerm_000267"
      }
    ],
    "definition": "Millimeter squared divided by microsecond",
    "displayUnit": true,
    "endDate": null,
    "legacyCode": "mm2/usec",
    "libraryName": "Sponsor",
    "masterUnit": false,
    "molecularWeightConvExpon": 0,
    "name": "mm2/usec",
    "order": 1,
    "siUnit": true,
    "startDate": "2022-10-18T12:55:20.414666",
    "status": "Final",
    "templateParameter": true,
    "ucum": null,
    "uid": "UnitDefinition_000072",
    "unitDimension": null,
    "unitSubsets": [],
    "usConventionalUnit": true,
    "userInitials": "MT",
    "version": "1.0"
  },
  {
    "changeDescription": "Approved version",
    "comment": "",
    "conversionFactorToMaster": 0.0,
    "convertibleUnit": false,
    "ctUnits": [],
    "definition": "Hours times equivalent nanomol per liter (area under the curve). ",
    "displayUnit": true,
    "endDate": null,
    "legacyCode": "h*nmol Eq/L",
    "libraryName": "Sponsor",
    "masterUnit": false,
    "molecularWeightConvExpon": 0,
    "name": "h*nmol Eq/L",
    "order": 100,
    "siUnit": false,
    "startDate": "2022-10-18T12:55:20.542325",
    "status": "Final",
    "templateParameter": true,
    "ucum": null,
    "uid": "UnitDefinition_000073",
    "unitDimension": {
      "name": "Time times concentration",
      "termUid": "CTTerm_000251"
    },
    "unitSubsets": [],
    "usConventionalUnit": false,
    "userInitials": "MT",
    "version": "1.0"
  },
  {
    "changeDescription": "Approved version",
    "comment": "",
    "conversionFactorToMaster": 1.0,
    "convertibleUnit": false,
    "ctUnits": [],
    "definition": "Sponsor defined. nmol equivalent per liter blood. CDISC not found_x000D_\n",
    "displayUnit": true,
    "endDate": null,
    "legacyCode": "nmolEq/L",
    "libraryName": "Sponsor",
    "masterUnit": false,
    "molecularWeightConvExpon": 0,
    "name": "nmolEq/L",
    "order": 2150,
    "siUnit": false,
    "startDate": "2022-10-18T12:55:20.690589",
    "status": "Final",
    "templateParameter": true,
    "ucum": null,
    "uid": "UnitDefinition_000074",
    "unitDimension": {
      "name": "Volumetric radioactivity",
      "termUid": "CTTerm_000209"
    },
    "unitSubsets": [],
    "usConventionalUnit": false,
    "userInitials": "MT",
    "version": "1.0"
  },
  {
    "changeDescription": "Approved version",
    "comment": "",
    "conversionFactorToMaster": 1.0,
    "convertibleUnit": false,
    "ctUnits": [],
    "definition": "Sponsor defined: A unit of concentration (molarity unit) equal to one billionth of a mole (10E-9 mole) of solute multiplied with Hours per Liter per miligram._x000D_\n",
    "displayUnit": true,
    "endDate": null,
    "legacyCode": "nmol*h/L/mg",
    "libraryName": "Sponsor",
    "masterUnit": true,
    "molecularWeightConvExpon": 1,
    "name": "nmol*h/L/mg",
    "order": 38,
    "siUnit": true,
    "startDate": "2022-10-18T12:55:20.823890",
    "status": "Final",
    "templateParameter": true,
    "ucum": {
      "name": "nmol.h/L/mg",
      "termUid": "DictionaryTerm_000084"
    },
    "uid": "UnitDefinition_000075",
    "unitDimension": {
      "name": "Concentration per time per dose",
      "termUid": "CTTerm_000242"
    },
    "unitSubsets": [],
    "usConventionalUnit": false,
    "userInitials": "MT",
    "version": "1.0"
  },
  {
    "changeDescription": "Approved version",
    "comment": "",
    "conversionFactorToMaster": 6.0,
    "convertibleUnit": true,
    "ctUnits": [],
    "definition": "Unit for measurement of endpoint calculated as rate. The unit consists of the main unit per the time unit. _x000D_\nConversion Factor to Master: _x000D_\n   Main unit: 100 mg / dL =100 mg / 100 mL = 1000 mg / L. Divide by molar mass glucose:   1000  mg / L / molecular weigth  = xxx mmol/L. That gives a factor of 0.001 when converting mmol/l to mg/dl._x000D_\n   Time unit: 60 minutes = 1 hours . That gives a factor of 1/60 when converting from minutes to hours._x000D_\n_x000D_\nMain unit together with time unit will have a factor of 0.001/(1/60)=0.001*60=0.06. _x000D_\n",
    "displayUnit": true,
    "endDate": null,
    "legacyCode": "mmol/L/min",
    "libraryName": "Sponsor",
    "masterUnit": false,
    "molecularWeightConvExpon": 1,
    "name": "mmol/L/min",
    "order": 36,
    "siUnit": true,
    "startDate": "2022-10-18T12:55:20.983657",
    "status": "Final",
    "templateParameter": true,
    "ucum": {
      "name": "mmol/L/min",
      "termUid": "DictionaryTerm_000071"
    },
    "uid": "UnitDefinition_000076",
    "unitDimension": {
      "name": "Concentration per time",
      "termUid": "CTTerm_000243"
    },
    "unitSubsets": [],
    "usConventionalUnit": true,
    "userInitials": "MT",
    "version": "1.0"
  },
  {
    "changeDescription": "Approved version",
    "comment": "",
    "conversionFactorToMaster": 0.0,
    "convertibleUnit": false,
    "ctUnits": [],
    "definition": "Sponsor defined: Concentration of one international unit multiplied with Hour per liter of system volume._x000D_\nCONVERSION FACTOR HAVE NOT BEEN QC",
    "displayUnit": false,
    "endDate": null,
    "legacyCode": "h*mIU/L",
    "libraryName": "Sponsor",
    "masterUnit": false,
    "molecularWeightConvExpon": 0,
    "name": "h*mIU/L",
    "order": 100,
    "siUnit": false,
    "startDate": "2022-10-18T12:55:21.221267",
    "status": "Final",
    "templateParameter": true,
    "ucum": {
      "name": "h.m[IU]/L",
      "termUid": "DictionaryTerm_000076"
    },
    "uid": "UnitDefinition_000077",
    "unitDimension": {
      "name": "Time times concentration",
      "termUid": "CTTerm_000251"
    },
    "unitSubsets": [],
    "usConventionalUnit": false,
    "userInitials": "MT",
    "version": "1.0"
  },
  {
    "changeDescription": "Approved version",
    "comment": "",
    "conversionFactorToMaster": 1000000000.0,
    "convertibleUnit": true,
    "ctUnits": [],
    "definition": "Hours times grams pr liter (area under the curve)",
    "displayUnit": true,
    "endDate": null,
    "legacyCode": "h*g/L",
    "libraryName": "Sponsor",
    "masterUnit": false,
    "molecularWeightConvExpon": 0,
    "name": "h*g/L",
    "order": 100,
    "siUnit": true,
    "startDate": "2022-10-18T12:55:21.365793",
    "status": "Final",
    "templateParameter": true,
    "ucum": {
      "name": "h.ng/L",
      "termUid": "DictionaryTerm_000124"
    },
    "uid": "UnitDefinition_000078",
    "unitDimension": {
      "name": "Time times concentration",
      "termUid": "CTTerm_000251"
    },
    "unitSubsets": [],
    "usConventionalUnit": true,
    "userInitials": "MT",
    "version": "1.0"
  },
  {
    "changeDescription": "Approved version",
    "comment": "",
    "conversionFactorToMaster": 0.01157407407,
    "convertibleUnit": true,
    "ctUnits": [],
    "definition": "A unit expressing the number of kiloJoules per day.",
    "displayUnit": true,
    "endDate": null,
    "legacyCode": "kJ/d",
    "libraryName": "Sponsor",
    "masterUnit": false,
    "molecularWeightConvExpon": 0,
    "name": "kJ/d",
    "order": 55,
    "siUnit": true,
    "startDate": "2022-10-18T12:55:21.506794",
    "status": "Final",
    "templateParameter": true,
    "ucum": {
      "name": "kJ/d",
      "termUid": "DictionaryTerm_000107"
    },
    "uid": "UnitDefinition_000079",
    "unitDimension": {
      "name": "Energy Expenditure",
      "termUid": "CTTerm_000230"
    },
    "unitSubsets": [],
    "usConventionalUnit": true,
    "userInitials": "MT",
    "version": "1.0"
  },
  {
    "changeDescription": "Approved version",
    "comment": "",
    "conversionFactorToMaster": 1.0,
    "convertibleUnit": true,
    "ctUnits": [],
    "definition": "Sponsor defined._x000D_\nmL/100mL/min_x000D_\n_x000D_\n",
    "displayUnit": true,
    "endDate": null,
    "legacyCode": "mL/100mL/min",
    "libraryName": "Sponsor",
    "masterUnit": false,
    "molecularWeightConvExpon": 0,
    "name": "mL/100mL/min",
    "order": 21,
    "siUnit": true,
    "startDate": "2022-10-18T12:55:21.657017",
    "status": "Final",
    "templateParameter": true,
    "ucum": {
      "name": "mL/100.mL/min",
      "termUid": "DictionaryTerm_000100"
    },
    "uid": "UnitDefinition_000080",
    "unitDimension": {
      "name": "Blood flow",
      "termUid": "CTTerm_000245"
    },
    "unitSubsets": [],
    "usConventionalUnit": true,
    "userInitials": "MT",
    "version": "1.0"
  },
  {
    "changeDescription": "Approved version",
    "comment": "",
    "conversionFactorToMaster": 0.0,
    "convertibleUnit": false,
    "ctUnits": [],
    "definition": "Sponsor defined: Percent multiplied with min_x000D_\n",
    "displayUnit": true,
    "endDate": null,
    "legacyCode": "%*min",
    "libraryName": "Sponsor",
    "masterUnit": false,
    "molecularWeightConvExpon": 0,
    "name": "%*min",
    "order": 1520,
    "siUnit": false,
    "startDate": "2022-10-18T12:55:21.828485",
    "status": "Final",
    "templateParameter": true,
    "ucum": {
      "name": "%.min",
      "termUid": "DictionaryTerm_000075"
    },
    "uid": "UnitDefinition_000081",
    "unitDimension": {
      "name": "Percentage",
      "termUid": "CTTerm_000221"
    },
    "unitSubsets": [],
    "usConventionalUnit": false,
    "userInitials": "MT",
    "version": "1.0"
  },
  {
    "changeDescription": "Approved version",
    "comment": "",
    "conversionFactorToMaster": 1.0,
    "convertibleUnit": false,
    "ctUnits": [],
    "definition": "Boolean to hold numeric values 0 and 1",
    "displayUnit": false,
    "endDate": null,
    "legacyCode": "BOOLEAN",
    "libraryName": "Sponsor",
    "masterUnit": true,
    "molecularWeightConvExpon": 0,
    "name": "BOOLEAN",
    "order": 40,
    "siUnit": false,
    "startDate": "2022-10-18T12:55:22.031498",
    "status": "Final",
    "templateParameter": true,
    "ucum": null,
    "uid": "UnitDefinition_000082",
    "unitDimension": {
      "name": "Dichotomy",
      "termUid": "CTTerm_000236"
    },
    "unitSubsets": [],
    "usConventionalUnit": false,
    "userInitials": "MT",
    "version": "1.0"
  },
  {
    "changeDescription": "Approved version",
    "comment": "",
    "conversionFactorToMaster": 16.6666667,
    "convertibleUnit": true,
    "ctUnits": [],
    "definition": "Unit for AUC umol*min/L",
    "displayUnit": true,
    "endDate": null,
    "legacyCode": "min*umol/L",
    "libraryName": "Sponsor",
    "masterUnit": false,
    "molecularWeightConvExpon": 1,
    "name": "min*umol/L",
    "order": 100,
    "siUnit": true,
    "startDate": "2022-10-18T12:55:22.202107",
    "status": "Final",
    "templateParameter": true,
    "ucum": {
      "name": "min.umol/L",
      "termUid": "DictionaryTerm_000104"
    },
    "uid": "UnitDefinition_000083",
    "unitDimension": {
      "name": "Time times concentration",
      "termUid": "CTTerm_000251"
    },
    "unitSubsets": [],
    "usConventionalUnit": true,
    "userInitials": "MT",
    "version": "1.0"
  },
  {
    "changeDescription": "Approved version",
    "comment": "",
    "conversionFactorToMaster": 1.0,
    "convertibleUnit": true,
    "ctUnits": [],
    "definition": "Centimetres Per Year._x000D_\nCentimetre is a basic unit of length equal to one hundredth of a meter or approximately 0.393700787 inch(CDISC:C49668, Units for Vital Signs Results). Per Year is a frequency rate of occurrences of something within a period of time equal to three hundred sixty-five days. (CDISC: C74924)_x000D_\n",
    "displayUnit": true,
    "endDate": null,
    "legacyCode": "cm/year",
    "libraryName": "Sponsor",
    "masterUnit": true,
    "molecularWeightConvExpon": 0,
    "name": "cm/year",
    "order": 120,
    "siUnit": false,
    "startDate": "2022-10-18T12:55:22.208385",
    "status": "Final",
    "templateParameter": true,
    "ucum": {
      "name": "cm/a",
      "termUid": "DictionaryTerm_000087"
    },
    "uid": "UnitDefinition_000084",
    "unitDimension": {
      "name": "Length per time",
      "termUid": "CTTerm_000227"
    },
    "unitSubsets": [],
    "usConventionalUnit": true,
    "userInitials": "MT",
    "version": "1.0"
  },
  {
    "changeDescription": "Approved version",
    "comment": "",
    "conversionFactorToMaster": 0.277777778,
    "convertibleUnit": true,
    "ctUnits": [],
    "definition": "kiloJoule per hour expenditure",
    "displayUnit": true,
    "endDate": null,
    "legacyCode": "kJ/h",
    "libraryName": "Sponsor",
    "masterUnit": false,
    "molecularWeightConvExpon": 0,
    "name": "kJ/h",
    "order": 56,
    "siUnit": true,
    "startDate": "2022-10-18T12:55:22.331711",
    "status": "Final",
    "templateParameter": true,
    "ucum": {
      "name": "kJ/h",
      "termUid": "DictionaryTerm_000086"
    },
    "uid": "UnitDefinition_000085",
    "unitDimension": {
      "name": "Energy Expenditure",
      "termUid": "CTTerm_000230"
    },
    "unitSubsets": [],
    "usConventionalUnit": true,
    "userInitials": "MT",
    "version": "1.0"
  },
  {
    "changeDescription": "Approved version",
    "comment": "",
    "conversionFactorToMaster": 1.0,
    "convertibleUnit": true,
    "ctUnits": [],
    "definition": "Hours times nanograms per liter (area under the curve).",
    "displayUnit": true,
    "endDate": null,
    "legacyCode": "h*ng/L",
    "libraryName": "Sponsor",
    "masterUnit": false,
    "molecularWeightConvExpon": 0,
    "name": "h*ng/L",
    "order": 100,
    "siUnit": true,
    "startDate": "2022-10-18T12:55:22.705133",
    "status": "Final",
    "templateParameter": true,
    "ucum": {
      "name": "h.ng/L",
      "termUid": "DictionaryTerm_000124"
    },
    "uid": "UnitDefinition_000086",
    "unitDimension": {
      "name": "Time times concentration",
      "termUid": "CTTerm_000251"
    },
    "unitSubsets": [],
    "usConventionalUnit": true,
    "userInitials": "MT",
    "version": "1.0"
  },
  {
    "changeDescription": "Approved version",
    "comment": "",
    "conversionFactorToMaster": 0.0166667,
    "convertibleUnit": true,
    "ctUnits": [],
    "definition": "Minutes times picograms per milliliter (area under the curve)._x000D_\n",
    "displayUnit": true,
    "endDate": null,
    "legacyCode": "min*pg/mL",
    "libraryName": "Sponsor",
    "masterUnit": false,
    "molecularWeightConvExpon": 0,
    "name": "min*pg/mL",
    "order": 100,
    "siUnit": true,
    "startDate": "2022-10-18T12:55:22.729662",
    "status": "Final",
    "templateParameter": true,
    "ucum": {
      "name": "min.pg/mL",
      "termUid": "DictionaryTerm_000123"
    },
    "uid": "UnitDefinition_000087",
    "unitDimension": {
      "name": "Time times concentration",
      "termUid": "CTTerm_000251"
    },
    "unitSubsets": [],
    "usConventionalUnit": true,
    "userInitials": "MT",
    "version": "1.0"
  },
  {
    "changeDescription": "Approved version",
    "comment": "",
    "conversionFactorToMaster": 1.0,
    "convertibleUnit": false,
    "ctUnits": [],
    "definition": "Hours times one millionth of an International unit per milliliter",
    "displayUnit": true,
    "endDate": null,
    "legacyCode": "h*uIU/mL",
    "libraryName": "Sponsor",
    "masterUnit": false,
    "molecularWeightConvExpon": 0,
    "name": "h*uIU/mL",
    "order": 100,
    "siUnit": false,
    "startDate": "2022-10-18T12:55:23.312498",
    "status": "Final",
    "templateParameter": true,
    "ucum": {
      "name": "h.u[IU]/mL",
      "termUid": "DictionaryTerm_000111"
    },
    "uid": "UnitDefinition_000088",
    "unitDimension": {
      "name": "Time times concentration",
      "termUid": "CTTerm_000251"
    },
    "unitSubsets": [],
    "usConventionalUnit": false,
    "userInitials": "MT",
    "version": "1.0"
  },
  {
    "changeDescription": "Approved version",
    "comment": "",
    "conversionFactorToMaster": 100.0,
    "convertibleUnit": true,
    "ctUnits": [
      {
        "name": "Fraction of 1",
        "termUid": "CTTerm_000261"
      },
      {
        "name": "fraction of 1",
        "termUid": "C105484_fraction of 1"
      }
    ],
    "definition": "CDISC code: C105484_x000D_\nCDISC submission value: fraction of 1_x000D_\nCDISC synonym: Proportion of 1 (SDTM CT 2017-12-22) _x000D_\nCDISC Description: A unit for expressing a percentage as a decimal whereby the total value is measured as a fraction of the numeric 1._x000D_\n",
    "displayUnit": true,
    "endDate": null,
    "legacyCode": "Proportion of 1",
    "libraryName": "Sponsor",
    "masterUnit": false,
    "molecularWeightConvExpon": 0,
    "name": "Proportion of 1",
    "order": 1520,
    "siUnit": false,
    "startDate": "2022-10-18T12:55:23.753380",
    "status": "Final",
    "templateParameter": true,
    "ucum": {
      "name": "{fraction of 1}",
      "termUid": "DictionaryTerm_000150"
    },
    "uid": "UnitDefinition_000089",
    "unitDimension": {
      "name": "Percentage",
      "termUid": "CTTerm_000221"
    },
    "unitSubsets": [],
    "usConventionalUnit": true,
    "userInitials": "MT",
    "version": "1.0"
  },
  {
    "changeDescription": "Approved version",
    "comment": "",
    "conversionFactorToMaster": 1.0,
    "convertibleUnit": true,
    "ctUnits": [
      {
        "name": "cm2",
        "termUid": "C48460_cm2"
      }
    ],
    "definition": "<CodeLists>_x000D_\n<CodeList Value=\"UNIT\"></CodeList>_x000D_\n<CodeList Value=\"VSRESU\" CodeSubmValue=\"cm2\"></CodeList>_x000D_\n</CodeLists>_x000D_\nCDISC code: C48460_x000D_\nCDISC submission value: cm2_x000D_\nCDISC synonym: Square Centimeter_x000D_\nCDISC Description: A unit of area measurement equal to a square measuring one centimeter on each side. One square centimeter is equal to 10E-4 square meter.(NCI)_x000D_\nNCI preferred term: Square Centimeter_x000D_\n",
    "displayUnit": true,
    "endDate": null,
    "legacyCode": "cm^2",
    "libraryName": "Sponsor",
    "masterUnit": true,
    "molecularWeightConvExpon": 0,
    "name": "cm^2",
    "order": 1,
    "siUnit": true,
    "startDate": "2022-10-18T12:55:24.302105",
    "status": "Final",
    "templateParameter": true,
    "ucum": {
      "name": "cm2",
      "termUid": "DictionaryTerm_000977"
    },
    "uid": "UnitDefinition_000090",
    "unitDimension": {
      "name": "Area",
      "termUid": "C25244_AREA"
    },
    "unitSubsets": [],
    "usConventionalUnit": true,
    "userInitials": "MT",
    "version": "1.0"
  },
  {
    "changeDescription": "Approved version",
    "comment": "",
    "conversionFactorToMaster": 10.0,
    "convertibleUnit": true,
    "ctUnits": [
      {
        "name": "g/cm2",
        "termUid": "C71201_g/cm2"
      }
    ],
    "definition": "CDISC code: C71201_x000D_\nCDISC submission value: g/cm2_x000D_\nCDISC synonym: Gram per Square Centimeter_x000D_\nCDISC Description: A unit of area density defined as a spread rate at which one gram of a substance is spread over the area of one square centimeter. The unit is also used as a dose calculation unit.(NCI)_x000D_\nNCI preferred term: Gram per Square Centimeter",
    "displayUnit": true,
    "endDate": null,
    "legacyCode": "g/cm^2",
    "libraryName": "Sponsor",
    "masterUnit": false,
    "molecularWeightConvExpon": 0,
    "name": "g/cm^2",
    "order": 25,
    "siUnit": true,
    "startDate": "2022-10-18T12:55:24.594322",
    "status": "Final",
    "templateParameter": true,
    "ucum": {
      "name": "g/cm2",
      "termUid": "DictionaryTerm_000353"
    },
    "uid": "UnitDefinition_000091",
    "unitDimension": {
      "name": "Body Mass Index",
      "termUid": "C16358_BMI"
    },
    "unitSubsets": [],
    "usConventionalUnit": true,
    "userInitials": "MT",
    "version": "1.0"
  },
  {
    "changeDescription": "Approved version",
    "comment": "",
    "conversionFactorToMaster": 2629743.83,
    "convertibleUnit": false,
    "ctUnits": [
      {
        "name": "MONTHS",
        "termUid": "C29846_MONTHS"
      }
    ],
    "definition": "CDISC code: C29846_x000D_\nCDISC submission value: MONTHS_x000D_\nCDISC synonym(s): Month_x000D_\nCDISC definition: One of the 12 divisions of a year as determined by a calendar. It corresponds to the unit of time of approximately to one cycle of the moon's phases, about 30 days or 4 weeks. (NCI)_x000D_\nNCI preferred term:Month_x000D_\n_x000D_\n[age subset]",
    "displayUnit": true,
    "endDate": null,
    "legacyCode": "month",
    "libraryName": "Sponsor",
    "masterUnit": false,
    "molecularWeightConvExpon": 0,
    "name": "month",
    "order": 1950,
    "siUnit": false,
    "startDate": "2022-10-18T12:55:24.848573",
    "status": "Final",
    "templateParameter": true,
    "ucum": {
      "name": "mo",
      "termUid": "DictionaryTerm_000729"
    },
    "uid": "UnitDefinition_000092",
    "unitDimension": {
      "name": "Duration",
      "termUid": "C25330_TIME"
    },
    "unitSubsets": [
      {
        "name": "Age Unit",
        "termUid": "C50400_AGEU"
      }
    ],
    "usConventionalUnit": false,
    "userInitials": "MT",
    "version": "1.0"
  },
  {
    "changeDescription": "Approved version",
    "comment": "",
    "conversionFactorToMaster": 0.1,
    "convertibleUnit": true,
    "ctUnits": [
      {
        "name": "10^8/L",
        "termUid": "C105489_10^8/L"
      }
    ],
    "definition": "A unit of measurement equal to 10 to the eighth power of entities per unit of volume equal to one liter.",
    "displayUnit": true,
    "endDate": null,
    "legacyCode": "10^8/L",
    "libraryName": "Sponsor",
    "masterUnit": false,
    "molecularWeightConvExpon": 0,
    "name": "10^8/L",
    "order": 1,
    "siUnit": true,
    "startDate": "2022-10-18T12:55:25.193120",
    "status": "Final",
    "templateParameter": true,
    "ucum": {
      "name": "10^8/l",
      "termUid": "DictionaryTerm_000129"
    },
    "uid": "UnitDefinition_000093",
    "unitDimension": {
      "name": "Specified Cell Count Test",
      "termUid": "C174332_CELL COUNT"
    },
    "unitSubsets": [],
    "usConventionalUnit": true,
    "userInitials": "MT",
    "version": "1.0"
  },
  {
    "changeDescription": "Approved version",
    "comment": "",
    "conversionFactorToMaster": 31557600.0,
    "convertibleUnit": true,
    "ctUnits": [
      {
        "name": "YEARS",
        "termUid": "C29848_YEARS"
      }
    ],
    "definition": "<CodeLists>_x000D_\n<CodeList Value=\"UNIT\"></CodeList>_x000D_\n<CodeList Value=\"AGEU\"></CodeList>_x000D_\n</CodeLists>_x000D_\nCDISC code: C29848_x000D_\nCDISC submission value: YEARS_x000D_\nCDISC synonym: Year_x000D_\nCDISC Description: The period of time that it takes for Earth to make a complete revolution around the sun, approximately 365 days; a specific one year period. (NCI)_x000D_\nNCI preferred term: Year_x000D_\n_x000D_\n[age subset]_x000D_\n[study time subset]_x000D_\n[time subset]",
    "displayUnit": true,
    "endDate": null,
    "legacyCode": "year",
    "libraryName": "Sponsor",
    "masterUnit": false,
    "molecularWeightConvExpon": 0,
    "name": "year",
    "order": 1950,
    "siUnit": false,
    "startDate": "2022-10-18T12:55:25.395725",
    "status": "Final",
    "templateParameter": true,
    "ucum": {
      "name": "a",
      "termUid": "DictionaryTerm_001010"
    },
    "uid": "UnitDefinition_000094",
    "unitDimension": {
      "name": "Duration",
      "termUid": "C25330_TIME"
    },
    "unitSubsets": [
      {
        "name": "Age Unit",
        "termUid": "C50400_AGEU"
      },
      {
        "name": "Study Time",
        "termUid": "CTTerm_000086"
      },
      {
        "name": "Time Unit",
        "termUid": "CTTerm_000085"
      }
    ],
    "usConventionalUnit": true,
    "userInitials": "MT",
    "version": "1.0"
  },
  {
    "changeDescription": "Approved version",
    "comment": "",
    "conversionFactorToMaster": 0.00136892539,
    "convertibleUnit": false,
    "ctUnits": [
      {
        "name": "/month",
        "termUid": "C64498_/month"
      }
    ],
    "definition": "CDISC code:C64498_x000D_\nCDISC submission value:/month_x000D_\nCDISC Synonym(s): Every Month; Per Month_x000D_\nCDISC definition: Every month. (NCI)_x000D_\nNCI Preferred Term : Monthly",
    "displayUnit": true,
    "endDate": null,
    "legacyCode": "/month",
    "libraryName": "Sponsor",
    "masterUnit": false,
    "molecularWeightConvExpon": 0,
    "name": "/month",
    "order": 39,
    "siUnit": false,
    "startDate": "2022-10-18T12:55:25.586823",
    "status": "Final",
    "templateParameter": true,
    "ucum": {
      "name": "/mo",
      "termUid": "DictionaryTerm_000871"
    },
    "uid": "UnitDefinition_000095",
    "unitDimension": {
      "name": "Count per time",
      "termUid": "CTTerm_000239"
    },
    "unitSubsets": [],
    "usConventionalUnit": false,
    "userInitials": "MT",
    "version": "1.0"
  },
  {
    "changeDescription": "Approved version",
    "comment": "",
    "conversionFactorToMaster": 1e-15,
    "convertibleUnit": true,
    "ctUnits": [
      {
        "name": "pg",
        "termUid": "C64551_pg"
      }
    ],
    "definition": "CDISC code: C64551_x000D_\nCDISC submission value: pg_x000D_\nCDISC synonym: Picogram_x000D_\nCDISC Description: A unit of mass equal to one trillionth of a gram (10E-12 gram).(NCI)_x000D_\nNCI preferred term: Picogram_x000D_\n_x000D_\n[dose subset]_x000D_\n[strength subset]_x000D_\n",
    "displayUnit": true,
    "endDate": null,
    "legacyCode": "pg",
    "libraryName": "Sponsor",
    "masterUnit": false,
    "molecularWeightConvExpon": 0,
    "name": "pg",
    "order": 2200,
    "siUnit": true,
    "startDate": "2022-10-18T12:55:25.859524",
    "status": "Final",
    "templateParameter": true,
    "ucum": {
      "name": "pg",
      "termUid": "DictionaryTerm_000926"
    },
    "uid": "UnitDefinition_000096",
    "unitDimension": {
      "name": "Weight",
      "termUid": "C25208_WEIGHT"
    },
    "unitSubsets": [
      {
        "name": "Dose Unit",
        "termUid": "CTTerm_000088"
      },
      {
        "name": "Strength Unit",
        "termUid": "CTTerm_000087"
      }
    ],
    "usConventionalUnit": true,
    "userInitials": "MT",
    "version": "1.0"
  },
  {
    "changeDescription": "Approved version",
    "comment": "",
    "conversionFactorToMaster": 1e-06,
    "convertibleUnit": true,
    "ctUnits": [
      {
        "name": "ug/L",
        "termUid": "C67306_ug/L"
      }
    ],
    "definition": "CDISC code: C67306_x000D_\nCDISC submission value: ug/L_x000D_\nCDISC synonym: mg/m3; Microgram per Liter; Milligram per Cubic Meter; Nanogram per Milliliter; ug/L; ng/mL; mcg/L_x000D_\nCDISC Description: A unit of mass concentration defined as the concentration of one microgram of a substance per unit volume of the mixture equal to one liter. The concept also refers to the unit of mass density (volumic mass) defined as the density of substance which mass equal to one microgram occupies the volume one liter.(NCI)_x000D_\nNCI preferred term: Microgram per Liter_x000D_\n_x000D_\n[strength subset]_x000D_\n",
    "displayUnit": true,
    "endDate": null,
    "legacyCode": "ug/L",
    "libraryName": "Sponsor",
    "masterUnit": false,
    "molecularWeightConvExpon": 0,
    "name": "ug/L",
    "order": 35,
    "siUnit": true,
    "startDate": "2022-10-18T12:55:26.076929",
    "status": "Final",
    "templateParameter": true,
    "ucum": {
      "name": "ng/mL",
      "termUid": "DictionaryTerm_000758"
    },
    "uid": "UnitDefinition_000097",
    "unitDimension": {
      "name": "Concentration",
      "termUid": "CTTerm_000244"
    },
    "unitSubsets": [
      {
        "name": "Strength Unit",
        "termUid": "CTTerm_000087"
      }
    ],
    "usConventionalUnit": true,
    "userInitials": "MT",
    "version": "1.0"
  },
  {
    "changeDescription": "Approved version",
    "comment": "",
    "conversionFactorToMaster": 1.0,
    "convertibleUnit": false,
    "ctUnits": [
      {
        "name": "Arbitrary U",
        "termUid": "C75765_Arbitrary U"
      }
    ],
    "definition": "A unit based on or subject to individual judgment, preference, or predetermined reference. (NCI)",
    "displayUnit": true,
    "endDate": null,
    "legacyCode": "Arbitrary U",
    "libraryName": "Sponsor",
    "masterUnit": false,
    "molecularWeightConvExpon": 0,
    "name": "Arbitrary U",
    "order": 1,
    "siUnit": false,
    "startDate": "2022-10-18T12:55:26.261918",
    "status": "Final",
    "templateParameter": true,
    "ucum": {
      "name": "[arb'U]",
      "termUid": "DictionaryTerm_000179"
    },
    "uid": "UnitDefinition_000098",
    "unitDimension": {
      "name": "Arbitrariness",
      "termUid": "CTTerm_000247"
    },
    "unitSubsets": [],
    "usConventionalUnit": false,
    "userInitials": "MT",
    "version": "1.0"
  },
  {
    "changeDescription": "Approved version",
    "comment": "",
    "conversionFactorToMaster": 1.0,
    "convertibleUnit": false,
    "ctUnits": [
      {
        "name": "CARTRIDGE",
        "termUid": "C48481_CARTRIDGE"
      }
    ],
    "definition": "A dosing measurement based on the cartridge unit.(NCI)_x000D_\n_x000D_\n[dose subset]",
    "displayUnit": true,
    "endDate": null,
    "legacyCode": "CARTRIDGE",
    "libraryName": "Sponsor",
    "masterUnit": false,
    "molecularWeightConvExpon": 0,
    "name": "CARTRIDGE",
    "order": 1,
    "siUnit": false,
    "startDate": "2022-10-18T12:55:26.445057",
    "status": "Final",
    "templateParameter": true,
    "ucum": {
      "name": "{CARTRIDGE}",
      "termUid": "DictionaryTerm_001013"
    },
    "uid": "UnitDefinition_000099",
    "unitDimension": null,
    "unitSubsets": [
      {
        "name": "Dose Unit",
        "termUid": "CTTerm_000088"
      }
    ],
    "usConventionalUnit": false,
    "userInitials": "MT",
    "version": "1.0"
  },
  {
    "changeDescription": "Approved version",
    "comment": "",
    "conversionFactorToMaster": 1.0,
    "convertibleUnit": true,
    "ctUnits": [
      {
        "name": "Joule",
        "termUid": "C42548_Joule"
      }
    ],
    "definition": "CDISC code: C42548_x000D_\nCDISC submission value: Joule_x000D_\nCDISC synonym: Joule_x000D_\nCDISC Description: A unit of electrical, mechanical, and thermal energy (as well as work and quantity of heat), equal to the work done when the point of application of a force of one Newton is displaced through a distance of one meter in the direction of the force or the work done when a current of one Ampere passes through a resistance of one ohm for one second. One joule is equal to 0.23889 gram-calorie (mean).(NCI)_x000D_\nNCI preferred term: Joule",
    "displayUnit": true,
    "endDate": null,
    "legacyCode": "J",
    "libraryName": "Sponsor",
    "masterUnit": true,
    "molecularWeightConvExpon": 0,
    "name": "J",
    "order": 52,
    "siUnit": true,
    "startDate": "2022-10-18T12:55:26.628328",
    "status": "Final",
    "templateParameter": true,
    "ucum": {
      "name": "J",
      "termUid": "DictionaryTerm_000402"
    },
    "uid": "UnitDefinition_000100",
    "unitDimension": {
      "name": "Energy",
      "termUid": "CTTerm_000231"
    },
    "unitSubsets": [],
    "usConventionalUnit": true,
    "userInitials": "MT",
    "version": "1.0"
  },
  {
    "changeDescription": "Approved version",
    "comment": "",
    "conversionFactorToMaster": 0.001,
    "convertibleUnit": true,
    "ctUnits": [
      {
        "name": "ug/kg",
        "termUid": "C67396_ug/kg"
      }
    ],
    "definition": "A unit of a mass fraction expressed as a number of micrograms of substance per kilogram of mixture. The unit is also used as a dose calculation unit.(NCI)",
    "displayUnit": true,
    "endDate": null,
    "legacyCode": "ug/kg",
    "libraryName": "Sponsor",
    "masterUnit": false,
    "molecularWeightConvExpon": 0,
    "name": "ug/kg",
    "order": 1,
    "siUnit": true,
    "startDate": "2022-10-18T12:55:26.884944",
    "status": "Final",
    "templateParameter": true,
    "ucum": {
      "name": "ug/kg",
      "termUid": "DictionaryTerm_000493"
    },
    "uid": "UnitDefinition_000101",
    "unitDimension": {
      "name": "Mass Fraction",
      "termUid": "C67470_MASS FRACTION"
    },
    "unitSubsets": [],
    "usConventionalUnit": true,
    "userInitials": "MT",
    "version": "1.0"
  },
  {
    "changeDescription": "Approved version",
    "comment": "",
    "conversionFactorToMaster": 0.01,
    "convertibleUnit": true,
    "ctUnits": [
      {
        "name": "cm/s",
        "termUid": "C102406_cm/s"
      }
    ],
    "definition": "A unit of both speed (scalar) and velocity (vector), defined as the distance of one centimeter travelled per unit time equal to one second.",
    "displayUnit": true,
    "endDate": null,
    "legacyCode": "cm/s",
    "libraryName": "Sponsor",
    "masterUnit": false,
    "molecularWeightConvExpon": 0,
    "name": "cm/s",
    "order": 2110,
    "siUnit": true,
    "startDate": "2022-10-18T12:55:27.085631",
    "status": "Final",
    "templateParameter": true,
    "ucum": {
      "name": "cm/s",
      "termUid": "DictionaryTerm_000205"
    },
    "uid": "UnitDefinition_000102",
    "unitDimension": {
      "name": "Velocity",
      "termUid": "C179817_VELOCITY"
    },
    "unitSubsets": [],
    "usConventionalUnit": true,
    "userInitials": "MT",
    "version": "1.0"
  },
  {
    "changeDescription": "Approved version",
    "comment": "",
    "conversionFactorToMaster": 1e-06,
    "convertibleUnit": true,
    "ctUnits": [
      {
        "name": "ug/L",
        "termUid": "C67306_ug/L"
      }
    ],
    "definition": "Micrograms per liter._x000D_\n_x000D_\nIn its current use NN defines mcg=ug as confirmed by CHHE. But UCUM defines it as mcg/L= millicentigram/Liters. There is a factor 10 difference. This means that mcg/L is defined as and linked to ng/mL (ug/L). ",
    "displayUnit": true,
    "endDate": null,
    "legacyCode": "mcg/L",
    "libraryName": "Sponsor",
    "masterUnit": false,
    "molecularWeightConvExpon": 0,
    "name": "mcg/L",
    "order": 1,
    "siUnit": true,
    "startDate": "2022-10-18T12:55:27.334680",
    "status": "Final",
    "templateParameter": true,
    "ucum": {
      "name": "ng/mL",
      "termUid": "DictionaryTerm_000758"
    },
    "uid": "UnitDefinition_000103",
    "unitDimension": {
      "name": "Concentration",
      "termUid": "CTTerm_000244"
    },
    "unitSubsets": [],
    "usConventionalUnit": true,
    "userInitials": "MT",
    "version": "1.0"
  },
  {
    "changeDescription": "Approved version",
    "comment": "",
    "conversionFactorToMaster": 1.0,
    "convertibleUnit": true,
    "ctUnits": [
      {
        "name": "Bq/mL",
        "termUid": "C71167_Bq/mL"
      }
    ],
    "definition": "CDISC code: C71167_x000D_\nCDISC submission value: Bq/mL_x000D_\nCDISC synonym: Becquerel per Milliliter; kBq/L; Kilobecquerel per Liter_x000D_\nCDISC Description: A unit of volumetric radioactivity concentration defined as a concentration of a radionuclide with an activity equal to one Becquerel per unit volume equal to one milliliter or one kilobecquerel per liter.(NCI)_x000D_\nNCI preferred term: Becquerel per Milliliter",
    "displayUnit": true,
    "endDate": null,
    "legacyCode": "Bq/mL",
    "libraryName": "Sponsor",
    "masterUnit": true,
    "molecularWeightConvExpon": 0,
    "name": "Bq/mL",
    "order": 2150,
    "siUnit": true,
    "startDate": "2022-10-18T12:55:27.579142",
    "status": "Final",
    "templateParameter": true,
    "ucum": {
      "name": "Bq/mL",
      "termUid": "DictionaryTerm_000162"
    },
    "uid": "UnitDefinition_000104",
    "unitDimension": {
      "name": "Volumetric radioactivity",
      "termUid": "CTTerm_000209"
    },
    "unitSubsets": [],
    "usConventionalUnit": true,
    "userInitials": "MT",
    "version": "1.0"
  },
  {
    "changeDescription": "Approved version",
    "comment": "",
    "conversionFactorToMaster": 10.0,
    "convertibleUnit": true,
    "ctUnits": [
      {
        "name": "10^10/L",
        "termUid": "C105517_10^10/L"
      }
    ],
    "definition": "Equal to 10^10/L_x000D_\nCDISC:Not Found",
    "displayUnit": true,
    "endDate": null,
    "legacyCode": "10^4/mm^3",
    "libraryName": "Sponsor",
    "masterUnit": false,
    "molecularWeightConvExpon": 0,
    "name": "10^4/mm^3",
    "order": 30,
    "siUnit": true,
    "startDate": "2022-10-18T12:55:27.768698",
    "status": "Final",
    "templateParameter": true,
    "ucum": {
      "name": "10^10/L",
      "termUid": "DictionaryTerm_000130"
    },
    "uid": "UnitDefinition_000105",
    "unitDimension": {
      "name": "Specified Cell Count Test",
      "termUid": "C174332_CELL COUNT"
    },
    "unitSubsets": [],
    "usConventionalUnit": true,
    "userInitials": "MT",
    "version": "1.0"
  },
  {
    "changeDescription": "Approved version",
    "comment": "",
    "conversionFactorToMaster": 0.001,
    "convertibleUnit": true,
    "ctUnits": [
      {
        "name": "mmol/L",
        "termUid": "C64387_mmol/L"
      }
    ],
    "definition": "CDISC code: C64387_x000D_\nCDISC submission value: mmol/L_x000D_\nCDISC synonym: Millimole per Liter; umol/mL; Micromole per Milliliter; mol/m3; Mole per Cubic Meter; mcmol/mL; mmol/L; nmol/uL_x000D_\nCDISC Description: A unit of concentration (molarity unit) equal to one thousandth of a mole (10E-3 mole) of solute per one liter of solution.(NCI)_x000D_\nNCI preferred term: Millimole per Liter_x000D_\n_x000D_\n[strength subset]_x000D_\n",
    "displayUnit": true,
    "endDate": null,
    "legacyCode": "mmol/L",
    "libraryName": "Sponsor",
    "masterUnit": false,
    "molecularWeightConvExpon": 1,
    "name": "mmol/L",
    "order": 35,
    "siUnit": true,
    "startDate": "2022-10-18T12:55:27.943224",
    "status": "Final",
    "templateParameter": true,
    "ucum": {
      "name": "mmol/L",
      "termUid": "DictionaryTerm_000687"
    },
    "uid": "UnitDefinition_000106",
    "unitDimension": {
      "name": "Concentration",
      "termUid": "CTTerm_000244"
    },
    "unitSubsets": [
      {
        "name": "Strength Unit",
        "termUid": "CTTerm_000087"
      }
    ],
    "usConventionalUnit": true,
    "userInitials": "MT",
    "version": "1.0"
  },
  {
    "changeDescription": "Approved version",
    "comment": "",
    "conversionFactorToMaster": 0.01,
    "convertibleUnit": true,
    "ctUnits": [
      {
        "name": "10^7/L",
        "termUid": "C98786_10^7/L"
      }
    ],
    "definition": "A unit of measurement equal to 10 to the seventh power of the number of entities per unit of volume equal to one liter._x000D_\n_x000D_\nCDISC code: 10^7/L_x000D_\nCDISC synonym: 10^6/dL",
    "displayUnit": true,
    "endDate": null,
    "legacyCode": "10^6/dL",
    "libraryName": "Sponsor",
    "masterUnit": false,
    "molecularWeightConvExpon": 0,
    "name": "10^6/dL",
    "order": 30,
    "siUnit": true,
    "startDate": "2022-10-18T12:55:28.137188",
    "status": "Final",
    "templateParameter": true,
    "ucum": {
      "name": "10*7/l",
      "termUid": "DictionaryTerm_000131"
    },
    "uid": "UnitDefinition_000107",
    "unitDimension": {
      "name": "Specified Cell Count Test",
      "termUid": "C174332_CELL COUNT"
    },
    "unitSubsets": [],
    "usConventionalUnit": true,
    "userInitials": "MT",
    "version": "1.0"
  },
  {
    "changeDescription": "Approved version",
    "comment": "",
    "conversionFactorToMaster": 0.0006944,
    "convertibleUnit": true,
    "ctUnits": [
      {
        "name": "mg/day",
        "termUid": "C67399_mg/day"
      }
    ],
    "definition": "unit for measurement of 24-hour quantitatively collected urine._x000D_\nCDISC code: C67399_x000D_\nCDISC submission value: mg/day_x000D_\nCDISC synonym(s):  Milligram per Day_x000D_\nCDISC definition: A unit of measure referring to the ratio between mass expressed in milligrams per day.(NCI)_x000D_\nNCI preferred term: Milligram per 24 Hours_x000D_\n_x000D_\n",
    "displayUnit": true,
    "endDate": null,
    "legacyCode": "mg/d",
    "libraryName": "Sponsor",
    "masterUnit": false,
    "molecularWeightConvExpon": 0,
    "name": "mg/d",
    "order": 120,
    "siUnit": true,
    "startDate": "2022-10-18T12:55:28.301804",
    "status": "Final",
    "templateParameter": true,
    "ucum": {
      "name": "mg/d",
      "termUid": "DictionaryTerm_000602"
    },
    "uid": "UnitDefinition_000108",
    "unitDimension": {
      "name": "Mass Flow Rate",
      "termUid": "CTTerm_000226"
    },
    "unitSubsets": [],
    "usConventionalUnit": true,
    "userInitials": "MT",
    "version": "1.0"
  },
  {
    "changeDescription": "Approved version",
    "comment": "",
    "conversionFactorToMaster": 1.0,
    "convertibleUnit": true,
    "ctUnits": [
      {
        "name": "mg/min",
        "termUid": "C73742_mg/min"
      }
    ],
    "definition": "CDISC code: C73742_x000D_\nCDISC submission value: mg/min_x000D_\nCDISC synonym: Milligram per Minute_x000D_\nCDISC Description: Milligrams per minute._x000D_\nNCI preferred term: mg/min_x000D_\n_x000D_\n[dose subset]",
    "displayUnit": true,
    "endDate": null,
    "legacyCode": "mg/min",
    "libraryName": "Sponsor",
    "masterUnit": true,
    "molecularWeightConvExpon": 0,
    "name": "mg/min",
    "order": 120,
    "siUnit": true,
    "startDate": "2022-10-18T12:55:28.527525",
    "status": "Final",
    "templateParameter": true,
    "ucum": {
      "name": "mg/min",
      "termUid": "DictionaryTerm_000625"
    },
    "uid": "UnitDefinition_000109",
    "unitDimension": {
      "name": "Mass Flow Rate",
      "termUid": "CTTerm_000226"
    },
    "unitSubsets": [
      {
        "name": "Dose Unit",
        "termUid": "CTTerm_000088"
      }
    ],
    "usConventionalUnit": true,
    "userInitials": "MT",
    "version": "1.0"
  },
  {
    "changeDescription": "Approved version",
    "comment": "",
    "conversionFactorToMaster": 1.0,
    "convertibleUnit": true,
    "ctUnits": [
      {
        "name": "mL/m2",
        "termUid": "C73761_mL/m2"
      }
    ],
    "definition": "Milliliters (volume) divided by meters squared (surface area).",
    "displayUnit": true,
    "endDate": null,
    "legacyCode": "mL/m2",
    "libraryName": "Sponsor",
    "masterUnit": false,
    "molecularWeightConvExpon": 0,
    "name": "mL/m2",
    "order": 1,
    "siUnit": true,
    "startDate": "2022-10-18T12:55:28.775321",
    "status": "Final",
    "templateParameter": true,
    "ucum": {
      "name": "mL/m2",
      "termUid": "DictionaryTerm_000661"
    },
    "uid": "UnitDefinition_000110",
    "unitDimension": {
      "name": "Volumen per Area",
      "termUid": "CTTerm_000207"
    },
    "unitSubsets": [],
    "usConventionalUnit": true,
    "userInitials": "MT",
    "version": "1.0"
  },
  {
    "changeDescription": "Approved version",
    "comment": "",
    "conversionFactorToMaster": 0.01,
    "convertibleUnit": true,
    "ctUnits": [
      {
        "name": "10^7/L",
        "termUid": "C98786_10^7/L"
      }
    ],
    "definition": "A unit of measurement equal to 10 to the seventh power of the number of entities per unit of volume equal to one liter.",
    "displayUnit": true,
    "endDate": null,
    "legacyCode": "10^7/L",
    "libraryName": "Sponsor",
    "masterUnit": false,
    "molecularWeightConvExpon": 0,
    "name": "10^7/L",
    "order": 1,
    "siUnit": true,
    "startDate": "2022-10-18T12:55:29.123341",
    "status": "Final",
    "templateParameter": true,
    "ucum": {
      "name": "10*7/l",
      "termUid": "DictionaryTerm_000131"
    },
    "uid": "UnitDefinition_000111",
    "unitDimension": {
      "name": "Specified Cell Count Test",
      "termUid": "C174332_CELL COUNT"
    },
    "unitSubsets": [],
    "usConventionalUnit": true,
    "userInitials": "MT",
    "version": "1.0"
  },
  {
    "changeDescription": "Approved version",
    "comment": "",
    "conversionFactorToMaster": 1e-08,
    "convertibleUnit": true,
    "ctUnits": [
      {
        "name": "um2",
        "termUid": "C73770_um2"
      }
    ],
    "definition": "Micrometer squared",
    "displayUnit": true,
    "endDate": null,
    "legacyCode": "um2",
    "libraryName": "Sponsor",
    "masterUnit": false,
    "molecularWeightConvExpon": 0,
    "name": "um2",
    "order": 1,
    "siUnit": true,
    "startDate": "2022-10-18T12:55:30.224745",
    "status": "Final",
    "templateParameter": true,
    "ucum": {
      "name": "um2",
      "termUid": "DictionaryTerm_000128"
    },
    "uid": "UnitDefinition_000112",
    "unitDimension": {
      "name": "Area",
      "termUid": "C25244_AREA"
    },
    "unitSubsets": [],
    "usConventionalUnit": true,
    "userInitials": "MT",
    "version": "1.0"
  },
  {
    "changeDescription": "Approved version",
    "comment": "",
    "conversionFactorToMaster": 10.0,
    "convertibleUnit": true,
    "ctUnits": [
      {
        "name": "10^10/L",
        "termUid": "C105517_10^10/L"
      }
    ],
    "definition": "A unit of measurement equal to 10 to the tenth power of entities per unit of volume equal to one liter. (NCI)_x000D_\nTen Billion Per Liter_x000D_\nSynonym(s): 10^4/mm3; 10^4/uL; 10^7/mL",
    "displayUnit": true,
    "endDate": null,
    "legacyCode": "10^10/L",
    "libraryName": "Sponsor",
    "masterUnit": false,
    "molecularWeightConvExpon": 0,
    "name": "10^10/L",
    "order": 30,
    "siUnit": true,
    "startDate": "2022-10-18T12:55:30.454002",
    "status": "Final",
    "templateParameter": true,
    "ucum": {
      "name": "10^10/L",
      "termUid": "DictionaryTerm_000130"
    },
    "uid": "UnitDefinition_000113",
    "unitDimension": {
      "name": "Specified Cell Count Test",
      "termUid": "C174332_CELL COUNT"
    },
    "unitSubsets": [],
    "usConventionalUnit": true,
    "userInitials": "MT",
    "version": "1.0"
  },
  {
    "changeDescription": "Approved version",
    "comment": "",
    "conversionFactorToMaster": 1.0,
    "convertibleUnit": false,
    "ctUnits": [
      {
        "name": "mL/kg/min",
        "termUid": "C73760_mL/kg/min"
      }
    ],
    "definition": "<CodeLists>_x000D_\n<CodeList Value=\"UNIT\"></CodeList>_x000D_\n<CodeList Value=\"PKUNIT\"></CodeList>_x000D_\n</CodeLists>_x000D_\nCDISC code: C73760_x000D_\nCDISC submission value: mL/kg/min_x000D_\nCDISC synonym: Milliliter per Kilogram per Minute; uL/g/min; mL/min/kg; uL/min/g; mL/kg/min_x000D_\nCDISC Description: Milliliters per kilogram per minute._x000D_\nNCI preferred term: mL/kg/min_x000D_\n",
    "displayUnit": true,
    "endDate": null,
    "legacyCode": "mL/kg/min",
    "libraryName": "Sponsor",
    "masterUnit": false,
    "molecularWeightConvExpon": 0,
    "name": "mL/kg/min",
    "order": 55,
    "siUnit": true,
    "startDate": "2022-10-18T12:55:30.647711",
    "status": "Final",
    "templateParameter": true,
    "ucum": {
      "name": "mL/kg/min",
      "termUid": "DictionaryTerm_000653"
    },
    "uid": "UnitDefinition_000114",
    "unitDimension": {
      "name": "Energy Expenditure",
      "termUid": "CTTerm_000230"
    },
    "unitSubsets": [],
    "usConventionalUnit": false,
    "userInitials": "MT",
    "version": "1.0"
  },
  {
    "changeDescription": "Approved version",
    "comment": "",
    "conversionFactorToMaster": 1.0,
    "convertibleUnit": false,
    "ctUnits": [
      {
        "name": "CUP",
        "termUid": "C54703_CUP"
      }
    ],
    "definition": "A dosing measurement based on the cup unit.(NCI)_x000D_\n_x000D_\n[dose subset]",
    "displayUnit": true,
    "endDate": null,
    "legacyCode": "CUP",
    "libraryName": "Sponsor",
    "masterUnit": false,
    "molecularWeightConvExpon": 0,
    "name": "CUP",
    "order": 1,
    "siUnit": false,
    "startDate": "2022-10-18T12:55:30.939802",
    "status": "Final",
    "templateParameter": true,
    "ucum": {
      "name": "{cup}",
      "termUid": "DictionaryTerm_001014"
    },
    "uid": "UnitDefinition_000115",
    "unitDimension": null,
    "unitSubsets": [
      {
        "name": "Dose Unit",
        "termUid": "CTTerm_000088"
      }
    ],
    "usConventionalUnit": false,
    "userInitials": "MT",
    "version": "1.0"
  },
  {
    "changeDescription": "Approved version",
    "comment": "",
    "conversionFactorToMaster": 0.001,
    "convertibleUnit": true,
    "ctUnits": [
      {
        "name": "mIU/L",
        "termUid": "C67405_mIU/L"
      }
    ],
    "definition": "mIU/L_x000D_\n_x000D_\n_x000D_\n[strength subset]_x000D_\n",
    "displayUnit": true,
    "endDate": null,
    "legacyCode": "mIU/L",
    "libraryName": "Sponsor",
    "masterUnit": false,
    "molecularWeightConvExpon": 0,
    "name": "mIU/L",
    "order": 2000,
    "siUnit": false,
    "startDate": "2022-10-18T12:55:31.129694",
    "status": "Final",
    "templateParameter": true,
    "ucum": {
      "name": "u[IU]/mL",
      "termUid": "DictionaryTerm_000471"
    },
    "uid": "UnitDefinition_000116",
    "unitDimension": {
      "name": "U/IU Concentration",
      "termUid": "CTTerm_000210"
    },
    "unitSubsets": [
      {
        "name": "Strength Unit",
        "termUid": "CTTerm_000087"
      }
    ],
    "usConventionalUnit": true,
    "userInitials": "MT",
    "version": "1.0"
  },
  {
    "changeDescription": "Approved version",
    "comment": "",
    "conversionFactorToMaster": 3600.0,
    "convertibleUnit": true,
    "ctUnits": [
      {
        "name": "HOURS",
        "termUid": "C25529_HOURS"
      }
    ],
    "definition": "CDISC code: C25529_x000D_\nCDISC submission value: HOURS_x000D_\nCDISC synonym: Hour; hr_x000D_\nCDISC Description: A unit measure of time equal to 3,600 seconds or 60 minutes. It is approximately 1/24 of a median day. (NCI)_x000D_\nNCI preferred term: Hour_x000D_\n_x000D_\n",
    "displayUnit": true,
    "endDate": null,
    "legacyCode": "h",
    "libraryName": "Sponsor",
    "masterUnit": false,
    "molecularWeightConvExpon": 0,
    "name": "h",
    "order": 1950,
    "siUnit": true,
    "startDate": "2022-10-18T12:55:31.293416",
    "status": "Final",
    "templateParameter": true,
    "ucum": {
      "name": "h",
      "termUid": "DictionaryTerm_000362"
    },
    "uid": "UnitDefinition_000117",
    "unitDimension": {
      "name": "Duration",
      "termUid": "C25330_TIME"
    },
    "unitSubsets": [],
    "usConventionalUnit": true,
    "userInitials": "MT",
    "version": "1.0"
  },
  {
    "changeDescription": "Approved version",
    "comment": "",
    "conversionFactorToMaster": 6e-06,
    "convertibleUnit": true,
    "ctUnits": [
      {
        "name": "nmol/L/min",
        "termUid": "C122219_nmol/L/min"
      }
    ],
    "definition": "CDISC Submission value: nmol/L/min_x000D_\nCDISC Synonym: nmol*min/L; pmol/mL/min_x000D_\nCDISC code:C122219_x000D_\nCDISC definition:A rate unit equal to the number of nanomoles per unit of volume equal to one liter per unit of time equal to one minute._x000D_\nNCI preferred term:Nanomole per Liter per Minute_x000D_\n",
    "displayUnit": true,
    "endDate": null,
    "legacyCode": "nM/min",
    "libraryName": "Sponsor",
    "masterUnit": false,
    "molecularWeightConvExpon": 1,
    "name": "nM/min",
    "order": 36,
    "siUnit": true,
    "startDate": "2022-10-18T12:55:31.504098",
    "status": "Final",
    "templateParameter": true,
    "ucum": {
      "name": "nmol/l/min",
      "termUid": "DictionaryTerm_000137"
    },
    "uid": "UnitDefinition_000118",
    "unitDimension": {
      "name": "Concentration per time",
      "termUid": "CTTerm_000243"
    },
    "unitSubsets": [],
    "usConventionalUnit": true,
    "userInitials": "MT",
    "version": "1.0"
  },
  {
    "changeDescription": "Approved version",
    "comment": "",
    "conversionFactorToMaster": 1000.0,
    "convertibleUnit": true,
    "ctUnits": [
      {
        "name": "10^12/L",
        "termUid": "C67308_10^12/L"
      }
    ],
    "definition": "Equal to 10^12/L_x000D_\nCDISC:Not Found",
    "displayUnit": true,
    "endDate": null,
    "legacyCode": "10^6/uL",
    "libraryName": "Sponsor",
    "masterUnit": false,
    "molecularWeightConvExpon": 0,
    "name": "10^6/uL",
    "order": 30,
    "siUnit": true,
    "startDate": "2022-10-18T12:55:31.666058",
    "status": "Final",
    "templateParameter": true,
    "ucum": {
      "name": "10*12/L",
      "termUid": "DictionaryTerm_001002"
    },
    "uid": "UnitDefinition_000119",
    "unitDimension": {
      "name": "Specified Cell Count Test",
      "termUid": "C174332_CELL COUNT"
    },
    "unitSubsets": [],
    "usConventionalUnit": true,
    "userInitials": "MT",
    "version": "1.0"
  },
  {
    "changeDescription": "Approved version",
    "comment": "",
    "conversionFactorToMaster": 86400.0,
    "convertibleUnit": true,
    "ctUnits": [
      {
        "name": "DAYS",
        "termUid": "C25301_DAYS"
      }
    ],
    "definition": "<CodeLists>_x000D_\n<CodeList Value=\"UNIT\"></CodeList>_x000D_\n<CodeList Value=\"AGEU\"></CodeList>_x000D_\n</CodeLists>_x000D_\nCDISC code: C25301_x000D_\nCDISC submission value: DAYS_x000D_\nCDISC synonym: Day_x000D_\nCDISC Description: The time for Earth to make a complete rotation on its axis; ordinarily divided into twenty-four hours. This also refers to a specific day. (_x000D_\nNCI preferred term: Day_x000D_\n",
    "displayUnit": true,
    "endDate": null,
    "legacyCode": "DAYS",
    "libraryName": "Sponsor",
    "masterUnit": false,
    "molecularWeightConvExpon": 0,
    "name": "DAYS",
    "order": 1950,
    "siUnit": true,
    "startDate": "2022-10-18T12:55:31.844328",
    "status": "Final",
    "templateParameter": true,
    "ucum": {
      "name": "d",
      "termUid": "DictionaryTerm_000225"
    },
    "uid": "UnitDefinition_000120",
    "unitDimension": {
      "name": "Duration",
      "termUid": "C25330_TIME"
    },
    "unitSubsets": [],
    "usConventionalUnit": true,
    "userInitials": "MT",
    "version": "1.0"
  },
  {
    "changeDescription": "Approved version",
    "comment": "",
    "conversionFactorToMaster": 0.001,
    "convertibleUnit": true,
    "ctUnits": [
      {
        "name": "mL",
        "termUid": "C28254_mL"
      }
    ],
    "definition": "<CodeLists>_x000D_\n<CodeList Value=\"UNIT\"></CodeList>_x000D_\n<CodeList Value=\"PKUNIT\"></CodeList>_x000D_\n</CodeLists>_x000D_\nCDISC code: C28254_x000D_\nCDISC submission value: mL_x000D_\nCDISC synonym: Milliliter; cm3_x000D_\nCDISC Description: The unit of volume equal to one thousandth of a liter, one cubic centimeter, 10E-6 cubic meter, or approximately to 0.061 023 7 cubic inch.(NCI)_x000D_\nNCI preferred term: Milliliter_x000D_\n_x000D_\n[strength subset]_x000D_\n_x000D_\n",
    "displayUnit": true,
    "endDate": null,
    "legacyCode": "mL",
    "libraryName": "Sponsor",
    "masterUnit": false,
    "molecularWeightConvExpon": 0,
    "name": "mL",
    "order": 2130,
    "siUnit": true,
    "startDate": "2022-10-18T12:55:32.200501",
    "status": "Final",
    "templateParameter": true,
    "ucum": {
      "name": "mL",
      "termUid": "DictionaryTerm_000631"
    },
    "uid": "UnitDefinition_000121",
    "unitDimension": {
      "name": "Volume",
      "termUid": "C25335_VOLUME"
    },
    "unitSubsets": [
      {
        "name": "Strength Unit",
        "termUid": "CTTerm_000087"
      }
    ],
    "usConventionalUnit": true,
    "userInitials": "MT",
    "version": "1.0"
  },
  {
    "changeDescription": "Approved version",
    "comment": "",
    "conversionFactorToMaster": 1.0,
    "convertibleUnit": true,
    "ctUnits": [
      {
        "name": "cm2",
        "termUid": "C48460_cm2"
      }
    ],
    "definition": "A unit of area measurement equal to a square measuring one centimeter on each side. One square centimeter is equal to 1E-4 square meter. (NCI)",
    "displayUnit": true,
    "endDate": null,
    "legacyCode": "cm2",
    "libraryName": "Sponsor",
    "masterUnit": false,
    "molecularWeightConvExpon": 0,
    "name": "cm2",
    "order": 1,
    "siUnit": true,
    "startDate": "2022-10-18T12:55:32.362690",
    "status": "Final",
    "templateParameter": true,
    "ucum": {
      "name": "cm2",
      "termUid": "DictionaryTerm_000977"
    },
    "uid": "UnitDefinition_000122",
    "unitDimension": {
      "name": "Area",
      "termUid": "C25244_AREA"
    },
    "unitSubsets": [],
    "usConventionalUnit": true,
    "userInitials": "MT",
    "version": "1.0"
  },
  {
    "changeDescription": "Approved version",
    "comment": "",
    "conversionFactorToMaster": 0.001,
    "convertibleUnit": true,
    "ctUnits": [
      {
        "name": "ug/kg",
        "termUid": "C67396_ug/kg"
      }
    ],
    "definition": "Sponsor defined: nanogram/gram.",
    "displayUnit": true,
    "endDate": null,
    "legacyCode": "ng/g",
    "libraryName": "Sponsor",
    "masterUnit": false,
    "molecularWeightConvExpon": 0,
    "name": "ng/g",
    "order": 129,
    "siUnit": true,
    "startDate": "2022-10-18T12:55:32.579821",
    "status": "Final",
    "templateParameter": true,
    "ucum": {
      "name": "ug/kg",
      "termUid": "DictionaryTerm_000493"
    },
    "uid": "UnitDefinition_000123",
    "unitDimension": {
      "name": "Mass Fraction",
      "termUid": "C67470_MASS FRACTION"
    },
    "unitSubsets": [],
    "usConventionalUnit": true,
    "userInitials": "MT",
    "version": "1.0"
  },
  {
    "changeDescription": "Approved version",
    "comment": "",
    "conversionFactorToMaster": 37000.0,
    "convertibleUnit": true,
    "ctUnits": [
      {
        "name": "mCi/L",
        "termUid": "C71174_mCi/L"
      }
    ],
    "definition": "A unit of volumetric radioactivity concentration defined as a concentration of a radionuclide with an activity equal to one thousandth of a Curie per unit volume equal to one liter.(NCI)",
    "displayUnit": true,
    "endDate": null,
    "legacyCode": "mCi/L",
    "libraryName": "Sponsor",
    "masterUnit": false,
    "molecularWeightConvExpon": 0,
    "name": "mCi/L",
    "order": 1,
    "siUnit": true,
    "startDate": "2022-10-18T12:55:32.808274",
    "status": "Final",
    "templateParameter": true,
    "ucum": {
      "name": "mCi/l",
      "termUid": "DictionaryTerm_000160"
    },
    "uid": "UnitDefinition_000124",
    "unitDimension": {
      "name": "Volumetric radioactivity",
      "termUid": "CTTerm_000209"
    },
    "unitSubsets": [],
    "usConventionalUnit": true,
    "userInitials": "MT",
    "version": "1.0"
  },
  {
    "changeDescription": "Approved version",
    "comment": "",
    "conversionFactorToMaster": 1000.0,
    "convertibleUnit": true,
    "ctUnits": [
      {
        "name": "mmol/mol",
        "termUid": "C111253_mmol/mol"
      }
    ],
    "definition": "mmol/mol. New unit to report HBA1c in._x000D_\n",
    "displayUnit": true,
    "endDate": null,
    "legacyCode": "mmol/mol",
    "libraryName": "Sponsor",
    "masterUnit": false,
    "molecularWeightConvExpon": 1,
    "name": "mmol/mol",
    "order": 1520,
    "siUnit": true,
    "startDate": "2022-10-18T12:55:33.006167",
    "status": "Final",
    "templateParameter": true,
    "ucum": {
      "name": "mmol/mol",
      "termUid": "DictionaryTerm_000693"
    },
    "uid": "UnitDefinition_000125",
    "unitDimension": {
      "name": "Mass Fraction",
      "termUid": "C67470_MASS FRACTION"
    },
    "unitSubsets": [],
    "usConventionalUnit": true,
    "userInitials": "MT",
    "version": "1.0"
  },
  {
    "changeDescription": "Approved version",
    "comment": "",
    "conversionFactorToMaster": 1.0,
    "convertibleUnit": true,
    "ctUnits": [
      {
        "name": "sec",
        "termUid": "C42535_sec"
      }
    ],
    "definition": "CDISC code: C42535_x000D_\nCDISC submission value: sec_x000D_\nCDISC synonym: Second_x000D_\nCDISC Description: The second is a unit of time with a duration of 919 263 177 0 periods of the specified light radiation corresponding to the transition between the two hyperfine levels of the cesium 133 atom in its ground state at 0 K. According to the convention, 60 seconds constitute one minute; 3,600 seconds constitute one hour. Abbreviation Sec. is acceptable in non-scientific usage only.(NCI)_x000D_\nNCI preferred term: Second_x000D_\n_x000D_\n[time subset]",
    "displayUnit": true,
    "endDate": null,
    "legacyCode": "s",
    "libraryName": "Sponsor",
    "masterUnit": true,
    "molecularWeightConvExpon": 0,
    "name": "s",
    "order": 1950,
    "siUnit": true,
    "startDate": "2022-10-18T12:55:33.206974",
    "status": "Final",
    "templateParameter": true,
    "ucum": {
      "name": "s",
      "termUid": "DictionaryTerm_000970"
    },
    "uid": "UnitDefinition_000126",
    "unitDimension": {
      "name": "Duration",
      "termUid": "C25330_TIME"
    },
    "unitSubsets": [
      {
        "name": "Time Unit",
        "termUid": "CTTerm_000085"
      }
    ],
    "usConventionalUnit": true,
    "userInitials": "MT",
    "version": "1.0"
  },
  {
    "changeDescription": "Approved version",
    "comment": "",
    "conversionFactorToMaster": 1.0,
    "convertibleUnit": false,
    "ctUnits": [
      {
        "name": "AMPULE",
        "termUid": "C48473_AMPULE"
      }
    ],
    "definition": "A dosing measurement based on the ampule unit.(NCI)_x000D_\n_x000D_\n[dose subset]",
    "displayUnit": true,
    "endDate": null,
    "legacyCode": "AMPULE",
    "libraryName": "Sponsor",
    "masterUnit": false,
    "molecularWeightConvExpon": 0,
    "name": "AMPULE",
    "order": 1,
    "siUnit": false,
    "startDate": "2022-10-18T12:55:33.383525",
    "status": "Final",
    "templateParameter": true,
    "ucum": {
      "name": "{Ampule}",
      "termUid": "DictionaryTerm_001015"
    },
    "uid": "UnitDefinition_000127",
    "unitDimension": null,
    "unitSubsets": [
      {
        "name": "Dose Unit",
        "termUid": "CTTerm_000088"
      }
    ],
    "usConventionalUnit": false,
    "userInitials": "MT",
    "version": "1.0"
  },
  {
    "changeDescription": "Approved version",
    "comment": "",
    "conversionFactorToMaster": 2.78e-07,
    "convertibleUnit": true,
    "ctUnits": [
      {
        "name": "mm/h",
        "termUid": "C67419_mm/h"
      }
    ],
    "definition": "CDISC code: C67419_x000D_\nCDISC submission value: mm/h_x000D_\nCDISC synonym: Millimeter per Hour_x000D_\nCDISC Description: A unit of both speed (scalar) and velocity (vector), defined as the distance of one millimeter travels per unit time equal to one hour.(NCI)_x000D_\nNCI preferred term: Millimeter per Hour",
    "displayUnit": true,
    "endDate": null,
    "legacyCode": "mm/h",
    "libraryName": "Sponsor",
    "masterUnit": false,
    "molecularWeightConvExpon": 0,
    "name": "mm/h",
    "order": 2110,
    "siUnit": true,
    "startDate": "2022-10-18T12:55:33.584793",
    "status": "Final",
    "templateParameter": true,
    "ucum": {
      "name": "mm/h",
      "termUid": "DictionaryTerm_000665"
    },
    "uid": "UnitDefinition_000128",
    "unitDimension": {
      "name": "Velocity",
      "termUid": "C179817_VELOCITY"
    },
    "unitSubsets": [],
    "usConventionalUnit": true,
    "userInitials": "MT",
    "version": "1.0"
  },
  {
    "changeDescription": "Approved version",
    "comment": "",
    "conversionFactorToMaster": 1e-09,
    "convertibleUnit": true,
    "ctUnits": [
      {
        "name": "ng/L",
        "termUid": "C67327_ng/L"
      }
    ],
    "definition": "CDISC code: C67327_x000D_\nCDISC submission value: ng/L_x000D_\nCDISC synonym: ug/m3; Microgram per Cubic Meter; ng/L; pg/mL_x000D_\nCDISC Description: A unit of mass concentration defined as the concentration of one nanogram of a substance per one liter of the mixture, or one picogram of a substance in unit volume of the mixture equal to one milliliter, or one microgram of a substance per one cubic meter of the mixture. The concept also refers to the metric unit of mass density (volumic mass) defined as the density of substance which mass equal to one nanogram occupies the volume one liter.(NCI)_x000D_\nNCI preferred term: Nanogram per Liter_x000D_\n_x000D_\n[strength subset]_x000D_\n",
    "displayUnit": true,
    "endDate": null,
    "legacyCode": "ng/L",
    "libraryName": "Sponsor",
    "masterUnit": false,
    "molecularWeightConvExpon": 0,
    "name": "ng/L",
    "order": 35,
    "siUnit": true,
    "startDate": "2022-10-18T12:55:33.864148",
    "status": "Final",
    "templateParameter": true,
    "ucum": {
      "name": "pg/mL",
      "termUid": "DictionaryTerm_000932"
    },
    "uid": "UnitDefinition_000129",
    "unitDimension": {
      "name": "Concentration",
      "termUid": "CTTerm_000244"
    },
    "unitSubsets": [
      {
        "name": "Strength Unit",
        "termUid": "CTTerm_000087"
      }
    ],
    "usConventionalUnit": true,
    "userInitials": "MT",
    "version": "1.0"
  },
  {
    "changeDescription": "Approved version",
    "comment": "",
    "conversionFactorToMaster": 0.04166,
    "convertibleUnit": true,
    "ctUnits": [
      {
        "name": "/day",
        "termUid": "C25473_/day"
      }
    ],
    "definition": "CDISC code: C25473_x000D_\nCDISC submission value: /day_x000D_\nCDISC synonym: Daily; Per Day_x000D_\nCDISC Description: Occurring or done each day. (NCI)_x000D_\nNCI preferred term: Daily",
    "displayUnit": true,
    "endDate": null,
    "legacyCode": "1/day",
    "libraryName": "Sponsor",
    "masterUnit": false,
    "molecularWeightConvExpon": 0,
    "name": "1/day",
    "order": 50,
    "siUnit": true,
    "startDate": "2022-10-18T12:55:34.094470",
    "status": "Final",
    "templateParameter": true,
    "ucum": {
      "name": "/d",
      "termUid": "DictionaryTerm_000847"
    },
    "uid": "UnitDefinition_000130",
    "unitDimension": {
      "name": "Elimination",
      "termUid": "CTTerm_000250"
    },
    "unitSubsets": [],
    "usConventionalUnit": true,
    "userInitials": "MT",
    "version": "1.0"
  },
  {
    "changeDescription": "Approved version",
    "comment": "",
    "conversionFactorToMaster": 60.0,
    "convertibleUnit": true,
    "ctUnits": [
      {
        "name": "Hz",
        "termUid": "C42545_Hz"
      }
    ],
    "definition": "CDISC submission value: Hz_x000D_\nA unit of frequency equal to one cycle per second.(NCI)",
    "displayUnit": true,
    "endDate": null,
    "legacyCode": "Hz",
    "libraryName": "Sponsor",
    "masterUnit": false,
    "molecularWeightConvExpon": 0,
    "name": "Hz",
    "order": 100,
    "siUnit": true,
    "startDate": "2022-10-18T12:55:34.393593",
    "status": "Final",
    "templateParameter": true,
    "ucum": {
      "name": "Hz",
      "termUid": "DictionaryTerm_000360"
    },
    "uid": "UnitDefinition_000131",
    "unitDimension": {
      "name": "Beat rate",
      "termUid": "CTTerm_000246"
    },
    "unitSubsets": [],
    "usConventionalUnit": true,
    "userInitials": "MT",
    "version": "1.0"
  },
  {
    "changeDescription": "Approved version",
    "comment": "",
    "conversionFactorToMaster": 3600.0,
    "convertibleUnit": true,
    "ctUnits": [
      {
        "name": "HOURS",
        "termUid": "C25529_HOURS"
      }
    ],
    "definition": "A unit of measurement of time equal to 60 minutes._x000D_\n",
    "displayUnit": true,
    "endDate": null,
    "legacyCode": "HOURS",
    "libraryName": "Sponsor",
    "masterUnit": false,
    "molecularWeightConvExpon": 0,
    "name": "HOURS",
    "order": 1950,
    "siUnit": true,
    "startDate": "2022-10-18T12:55:34.572365",
    "status": "Final",
    "templateParameter": true,
    "ucum": {
      "name": "h",
      "termUid": "DictionaryTerm_000362"
    },
    "uid": "UnitDefinition_000132",
    "unitDimension": {
      "name": "Duration",
      "termUid": "C25330_TIME"
    },
    "unitSubsets": [],
    "usConventionalUnit": true,
    "userInitials": "MT",
    "version": "1.0"
  },
  {
    "changeDescription": "Approved version",
    "comment": "",
    "conversionFactorToMaster": 1.0,
    "convertibleUnit": true,
    "ctUnits": [
      {
        "name": "kg/m2",
        "termUid": "C49671_kg/m2"
      }
    ],
    "definition": "<CodeLists>_x000D_\n<CodeList Value=\"UNIT\"></CodeList>_x000D_\n<CodeList Value=\"VSRESU\"></CodeList>_x000D_\n</CodeLists>_x000D_\nCDISC code: C49671_x000D_\nCDISC submission value: kg/m2_x000D_\nCDISC synonym: Kilogram per Square Meter_x000D_\nCDISC Description: A unit expressed as kilogram of mass per square meter of area.(NCI)_x000D_\nNCI preferred term: Kilogram Per Square Meter",
    "displayUnit": true,
    "endDate": null,
    "legacyCode": "kg/m^2",
    "libraryName": "Sponsor",
    "masterUnit": true,
    "molecularWeightConvExpon": 0,
    "name": "kg/m^2",
    "order": 25,
    "siUnit": true,
    "startDate": "2022-10-18T12:55:34.903690",
    "status": "Final",
    "templateParameter": true,
    "ucum": {
      "name": "kg/m2",
      "termUid": "DictionaryTerm_000432"
    },
    "uid": "UnitDefinition_000133",
    "unitDimension": {
      "name": "Body Mass Index",
      "termUid": "C16358_BMI"
    },
    "unitSubsets": [],
    "usConventionalUnit": true,
    "userInitials": "MT",
    "version": "1.0"
  },
  {
    "changeDescription": "Approved version",
    "comment": "",
    "conversionFactorToMaster": 1.0,
    "convertibleUnit": true,
    "ctUnits": [
      {
        "name": "mg/kg/min",
        "termUid": "C71207_mg/kg/min"
      }
    ],
    "definition": "CDISC code: C71207_x000D_\nCDISC submission value: mg/kg/min_x000D_\nCDISC synonym: Milligram per Kilogram per Minute_x000D_\nCDISC Description: A dose calculation unit equal to one thousandth of a gram of a preparation per one kilogram of body mass administered per unit of time equal to one minute.(NCI)_x000D_\nNCI preferred term: Milligram per Kilogram per Minute",
    "displayUnit": true,
    "endDate": null,
    "legacyCode": "mg/kg/min",
    "libraryName": "Sponsor",
    "masterUnit": false,
    "molecularWeightConvExpon": 0,
    "name": "mg/kg/min",
    "order": 1735,
    "siUnit": true,
    "startDate": "2022-10-18T12:55:35.085717",
    "status": "Final",
    "templateParameter": true,
    "ucum": {
      "name": "mg/kg/min",
      "termUid": "DictionaryTerm_000617"
    },
    "uid": "UnitDefinition_000134",
    "unitDimension": {
      "name": "Relative Mass Flow Rate",
      "termUid": "CTTerm_000215"
    },
    "unitSubsets": [],
    "usConventionalUnit": true,
    "userInitials": "MT",
    "version": "1.0"
  },
  {
    "changeDescription": "Approved version",
    "comment": "",
    "conversionFactorToMaster": 1.0,
    "convertibleUnit": false,
    "ctUnits": [
      {
        "name": "TABLET",
        "termUid": "C48542_TABLET"
      }
    ],
    "definition": "A dosing measurement based on the tablet unit.(NCI)_x000D_\n_x000D_\n[dose subset]",
    "displayUnit": true,
    "endDate": null,
    "legacyCode": "TABLET",
    "libraryName": "Sponsor",
    "masterUnit": false,
    "molecularWeightConvExpon": 0,
    "name": "TABLET",
    "order": 1,
    "siUnit": false,
    "startDate": "2022-10-18T12:55:35.296116",
    "status": "Final",
    "templateParameter": true,
    "ucum": {
      "name": "{Tablet}",
      "termUid": "DictionaryTerm_001016"
    },
    "uid": "UnitDefinition_000135",
    "unitDimension": null,
    "unitSubsets": [
      {
        "name": "Dose Unit",
        "termUid": "CTTerm_000088"
      }
    ],
    "usConventionalUnit": false,
    "userInitials": "MT",
    "version": "1.0"
  },
  {
    "changeDescription": "Approved version",
    "comment": "",
    "conversionFactorToMaster": 0.0,
    "convertibleUnit": false,
    "ctUnits": [
      {
        "name": "copies/uL",
        "termUid": "C116237_copies/uL"
      }
    ],
    "definition": "CDISC Submission Value: copies/uL_x000D_\nCode: C116237_x000D_\nCDISC Definition: A unit of concentration expressed as a number of copies per unit volume equal to one microliter._x000D_\nNCI Preferred Term: Copies per Microliter",
    "displayUnit": true,
    "endDate": null,
    "legacyCode": "copies/uL",
    "libraryName": "Sponsor",
    "masterUnit": false,
    "molecularWeightConvExpon": 0,
    "name": "copies/uL",
    "order": 1,
    "siUnit": false,
    "startDate": "2022-10-18T12:55:35.517115",
    "status": "Final",
    "templateParameter": true,
    "ucum": {
      "name": "{copies}/ul",
      "termUid": "DictionaryTerm_000133"
    },
    "uid": "UnitDefinition_000136",
    "unitDimension": {
      "name": "Concentration",
      "termUid": "CTTerm_000244"
    },
    "unitSubsets": [],
    "usConventionalUnit": false,
    "userInitials": "MT",
    "version": "1.0"
  },
  {
    "changeDescription": "Approved version",
    "comment": "",
    "conversionFactorToMaster": 1000.0,
    "convertibleUnit": true,
    "ctUnits": [
      {
        "name": "10^12/L",
        "termUid": "C67308_10^12/L"
      }
    ],
    "definition": "equal to 10^12/L_x000D_\n_x000D_\nCDISC code: C67308_x000D_\nCDISC submission value: 10^12/L_x000D_\nCDISC synonym:1/pL",
    "displayUnit": true,
    "endDate": null,
    "legacyCode": "1/pL",
    "libraryName": "Sponsor",
    "masterUnit": false,
    "molecularWeightConvExpon": 0,
    "name": "1/pL",
    "order": 30,
    "siUnit": true,
    "startDate": "2022-10-18T12:55:35.753149",
    "status": "Final",
    "templateParameter": true,
    "ucum": {
      "name": "10*12/L",
      "termUid": "DictionaryTerm_001002"
    },
    "uid": "UnitDefinition_000137",
    "unitDimension": {
      "name": "Specified Cell Count Test",
      "termUid": "C174332_CELL COUNT"
    },
    "unitSubsets": [],
    "usConventionalUnit": true,
    "userInitials": "MT",
    "version": "1.0"
  },
  {
    "changeDescription": "Approved version",
    "comment": "",
    "conversionFactorToMaster": 1.0,
    "convertibleUnit": true,
    "ctUnits": [
      {
        "name": "10^9/L",
        "termUid": "C67255_10^9/L"
      }
    ],
    "definition": "CDISC Submission Value: 10^9/L_x000D_\nSynonyms: 1/nL; 10^3/mm3; 10^3/uL; 10^6/mL; G/L; GI/L; Giga per Liter_x000D_\nA unit of measurement equal to 10 to the ninth power of the number of entities per unit of volume equal to one liter.",
    "displayUnit": true,
    "endDate": null,
    "legacyCode": "10^3/mm^3",
    "libraryName": "Sponsor",
    "masterUnit": false,
    "molecularWeightConvExpon": 0,
    "name": "10^3/mm^3",
    "order": 30,
    "siUnit": true,
    "startDate": "2022-10-18T12:55:35.967925",
    "status": "Final",
    "templateParameter": true,
    "ucum": {
      "name": "10*9/L",
      "termUid": "DictionaryTerm_000187"
    },
    "uid": "UnitDefinition_000138",
    "unitDimension": {
      "name": "Specified Cell Count Test",
      "termUid": "C174332_CELL COUNT"
    },
    "unitSubsets": [],
    "usConventionalUnit": true,
    "userInitials": "MT",
    "version": "1.0"
  },
  {
    "changeDescription": "Approved version",
    "comment": "",
    "conversionFactorToMaster": 1e-06,
    "convertibleUnit": true,
    "ctUnits": [
      {
        "name": "uL",
        "termUid": "C48153_uL"
      }
    ],
    "definition": "mm^3 is equivalent to_x000D_\nCDISC code: C48153_x000D_\nCDISC submission value: uL_x000D_\nCDISC synonym(s): Microliter; mcL; mm3_x000D_\nCDISC definition: A unit of volume accepted for use with the SI and equal to one millionth of a liter (10E-6 liter)(NCI)_x000D_\nNCI preferred term: Microliter",
    "displayUnit": true,
    "endDate": null,
    "legacyCode": "mm^3",
    "libraryName": "Sponsor",
    "masterUnit": false,
    "molecularWeightConvExpon": 0,
    "name": "mm^3",
    "order": 2130,
    "siUnit": true,
    "startDate": "2022-10-18T12:55:36.170609",
    "status": "Final",
    "templateParameter": true,
    "ucum": {
      "name": "uL",
      "termUid": "DictionaryTerm_000515"
    },
    "uid": "UnitDefinition_000139",
    "unitDimension": {
      "name": "Volume",
      "termUid": "C25335_VOLUME"
    },
    "unitSubsets": [],
    "usConventionalUnit": true,
    "userInitials": "MT",
    "version": "1.0"
  },
  {
    "changeDescription": "Approved version",
    "comment": "",
    "conversionFactorToMaster": 1.0,
    "convertibleUnit": true,
    "ctUnits": [
      {
        "name": "10^9/L",
        "termUid": "C67255_10^9/L"
      }
    ],
    "definition": "equal to 10^9/L_x000D_\nNo CDISC standard for submission value or definition exist_x000D_\n",
    "displayUnit": true,
    "endDate": null,
    "legacyCode": "1/nL",
    "libraryName": "Sponsor",
    "masterUnit": false,
    "molecularWeightConvExpon": 0,
    "name": "1/nL",
    "order": 30,
    "siUnit": true,
    "startDate": "2022-10-18T12:55:36.368581",
    "status": "Final",
    "templateParameter": true,
    "ucum": {
      "name": "10*9/L",
      "termUid": "DictionaryTerm_000187"
    },
    "uid": "UnitDefinition_000140",
    "unitDimension": {
      "name": "Specified Cell Count Test",
      "termUid": "C174332_CELL COUNT"
    },
    "unitSubsets": [],
    "usConventionalUnit": true,
    "userInitials": "MT",
    "version": "1.0"
  },
  {
    "changeDescription": "Approved version",
    "comment": "",
    "conversionFactorToMaster": 604800.0,
    "convertibleUnit": true,
    "ctUnits": [
      {
        "name": "WEEKS",
        "termUid": "C29844_WEEKS"
      }
    ],
    "definition": "Any period of seven consecutive days. (NCI)_x000D_\n",
    "displayUnit": true,
    "endDate": null,
    "legacyCode": "WEEKS",
    "libraryName": "Sponsor",
    "masterUnit": false,
    "molecularWeightConvExpon": 0,
    "name": "WEEKS",
    "order": 1,
    "siUnit": false,
    "startDate": "2022-10-18T12:55:36.601246",
    "status": "Final",
    "templateParameter": true,
    "ucum": {
      "name": "wk",
      "termUid": "DictionaryTerm_001007"
    },
    "uid": "UnitDefinition_000141",
    "unitDimension": {
      "name": "Duration",
      "termUid": "C25330_TIME"
    },
    "unitSubsets": [],
    "usConventionalUnit": true,
    "userInitials": "MT",
    "version": "1.0"
  },
  {
    "changeDescription": "Approved version",
    "comment": "",
    "conversionFactorToMaster": 0.01,
    "convertibleUnit": true,
    "ctUnits": [
      {
        "name": "mg/dL",
        "termUid": "C67015_mg/dL"
      }
    ],
    "definition": "Found this explanation using this link:https://fscimage.fishersci.com/webimages_FSC/downloads/winek.pdf",
    "displayUnit": true,
    "endDate": null,
    "legacyCode": "mg%",
    "libraryName": "Sponsor",
    "masterUnit": false,
    "molecularWeightConvExpon": 0,
    "name": "mg%",
    "order": 35,
    "siUnit": false,
    "startDate": "2022-10-18T12:55:36.844634",
    "status": "Final",
    "templateParameter": true,
    "ucum": {
      "name": "mg/dL",
      "termUid": "DictionaryTerm_000604"
    },
    "uid": "UnitDefinition_000142",
    "unitDimension": {
      "name": "Concentration",
      "termUid": "CTTerm_000244"
    },
    "unitSubsets": [],
    "usConventionalUnit": true,
    "userInitials": "MT",
    "version": "1.0"
  },
  {
    "changeDescription": "Approved version",
    "comment": "",
    "conversionFactorToMaster": 1.0,
    "convertibleUnit": true,
    "ctUnits": [
      {
        "name": "mL/h",
        "termUid": "C66962_mL/h"
      }
    ],
    "definition": "<CodeLists>_x000D_\n<CodeList Value=\"UNIT\"></CodeList>_x000D_\n<CodeList Value=\"PKUNIT\"></CodeList>_x000D_\n</CodeLists>_x000D_\nCDISC code: C66962_x000D_\nCDISC submission value: mL/h_x000D_\nCDISC synonym: Milliliters per Hour_x000D_\nCDISC Description: A unit of volumetric flow rate defined as the rate at which one milliliter of matter travels during the period of time equal to one hour.(NCI)_x000D_\nNCI preferred term: Milliliter per Hour_x000D_\n",
    "displayUnit": true,
    "endDate": null,
    "legacyCode": "mL/h",
    "libraryName": "Sponsor",
    "masterUnit": true,
    "molecularWeightConvExpon": 0,
    "name": "mL/h",
    "order": 60,
    "siUnit": true,
    "startDate": "2022-10-18T12:55:37.068572",
    "status": "Final",
    "templateParameter": true,
    "ucum": {
      "name": "mL/h",
      "termUid": "DictionaryTerm_000648"
    },
    "uid": "UnitDefinition_000143",
    "unitDimension": {
      "name": "Flow",
      "termUid": "CTTerm_000229"
    },
    "unitSubsets": [],
    "usConventionalUnit": true,
    "userInitials": "MT",
    "version": "1.0"
  },
  {
    "changeDescription": "Approved version",
    "comment": "",
    "conversionFactorToMaster": 1e-06,
    "convertibleUnit": true,
    "ctUnits": [
      {
        "name": "umol/L",
        "termUid": "C48508_umol/L"
      }
    ],
    "definition": "CDISC code: C48508_x000D_\nCDISC submission value: umol/L_x000D_\nCDISC synonym: Micromole per Liter_x000D_\nCDISC Description: A unit of concentration (molarity unit) equal to one one-millionth of a mole (10E-6 mole) of solute per one liter of solution. (NCI)_x000D_\nNCI preferred term: umol/L_x000D_\n_x000D_\n[strength subset]_x000D_\n",
    "displayUnit": true,
    "endDate": null,
    "legacyCode": "umol/L",
    "libraryName": "Sponsor",
    "masterUnit": false,
    "molecularWeightConvExpon": 1,
    "name": "umol/L",
    "order": 35,
    "siUnit": true,
    "startDate": "2022-10-18T12:55:37.252479",
    "status": "Final",
    "templateParameter": true,
    "ucum": {
      "name": "umol/L",
      "termUid": "DictionaryTerm_000533"
    },
    "uid": "UnitDefinition_000144",
    "unitDimension": {
      "name": "Concentration",
      "termUid": "CTTerm_000244"
    },
    "unitSubsets": [
      {
        "name": "Strength Unit",
        "termUid": "CTTerm_000087"
      }
    ],
    "usConventionalUnit": true,
    "userInitials": "MT",
    "version": "1.0"
  },
  {
    "changeDescription": "Approved version",
    "comment": "",
    "conversionFactorToMaster": 0.0484,
    "convertibleUnit": true,
    "ctUnits": [
      {
        "name": "Kilocalorie per Day",
        "termUid": "C139135_kcal/day"
      }
    ],
    "definition": "Kcal/24h",
    "displayUnit": true,
    "endDate": null,
    "legacyCode": "Kcal/24h",
    "libraryName": "Sponsor",
    "masterUnit": false,
    "molecularWeightConvExpon": 0,
    "name": "Kcal/24h",
    "order": 55,
    "siUnit": false,
    "startDate": "2022-10-18T12:55:37.498464",
    "status": "Final",
    "templateParameter": true,
    "ucum": {
      "name": "kcal/d",
      "termUid": "DictionaryTerm_000419"
    },
    "uid": "UnitDefinition_000145",
    "unitDimension": {
      "name": "Energy Expenditure",
      "termUid": "CTTerm_000230"
    },
    "unitSubsets": [],
    "usConventionalUnit": true,
    "userInitials": "MT",
    "version": "1.0"
  },
  {
    "changeDescription": "Approved version",
    "comment": "",
    "conversionFactorToMaster": 1.0,
    "convertibleUnit": true,
    "ctUnits": [
      {
        "name": "U/kg",
        "termUid": "C67465_U/kg"
      }
    ],
    "definition": "U/kg, Units per Kilogram to be used for derived topic codes on dosing _x000D_\n",
    "displayUnit": true,
    "endDate": null,
    "legacyCode": "U/KG",
    "libraryName": "Sponsor",
    "masterUnit": true,
    "molecularWeightConvExpon": 0,
    "name": "U/KG",
    "order": 1720,
    "siUnit": false,
    "startDate": "2022-10-18T12:55:37.699435",
    "status": "Final",
    "templateParameter": true,
    "ucum": {
      "name": "{Unit}/kg",
      "termUid": "DictionaryTerm_000153"
    },
    "uid": "UnitDefinition_000146",
    "unitDimension": {
      "name": "Relative Dose Unit",
      "termUid": "CTTerm_000217"
    },
    "unitSubsets": [],
    "usConventionalUnit": true,
    "userInitials": "MT",
    "version": "1.0"
  },
  {
    "changeDescription": "Approved version",
    "comment": "",
    "conversionFactorToMaster": 1e-09,
    "convertibleUnit": true,
    "ctUnits": [
      {
        "name": "ug",
        "termUid": "C48152_ug"
      }
    ],
    "definition": "<CodeLists>_x000D_\n<CodeList Value=\"UNIT\"></CodeList>_x000D_\n<CodeList Value=\"PKUNIT\"></CodeList>_x000D_\n</CodeLists>_x000D_\nCDISC code: C48152_x000D_\nCDISC submission value: ug_x000D_\nCDISC synonym: Microgram; mcg_x000D_\nCDISC Description: The unit of mass equal to one millionth of a gram or one thousandth of a milligram.(NCI)_x000D_\nNCI preferred term: Microgram_x000D_\n_x000D_\n[dose subset]_x000D_\n[strength subset]_x000D_\n",
    "displayUnit": true,
    "endDate": null,
    "legacyCode": "ug",
    "libraryName": "Sponsor",
    "masterUnit": false,
    "molecularWeightConvExpon": 0,
    "name": "ug",
    "order": 2200,
    "siUnit": true,
    "startDate": "2022-10-18T12:55:37.917765",
    "status": "Final",
    "templateParameter": true,
    "ucum": {
      "name": "ug",
      "termUid": "DictionaryTerm_000475"
    },
    "uid": "UnitDefinition_000147",
    "unitDimension": {
      "name": "Weight",
      "termUid": "C25208_WEIGHT"
    },
    "unitSubsets": [
      {
        "name": "Dose Unit",
        "termUid": "CTTerm_000088"
      },
      {
        "name": "Strength Unit",
        "termUid": "CTTerm_000087"
      }
    ],
    "usConventionalUnit": true,
    "userInitials": "MT",
    "version": "1.0"
  },
  {
    "changeDescription": "Approved version",
    "comment": "",
    "conversionFactorToMaster": 3600.0,
    "convertibleUnit": true,
    "ctUnits": [
      {
        "name": "/sec",
        "termUid": "C66965_/sec"
      }
    ],
    "definition": "Per second",
    "displayUnit": true,
    "endDate": null,
    "legacyCode": "/sec",
    "libraryName": "Sponsor",
    "masterUnit": false,
    "molecularWeightConvExpon": 0,
    "name": "/sec",
    "order": 1,
    "siUnit": true,
    "startDate": "2022-10-18T12:55:38.118540",
    "status": "Final",
    "templateParameter": true,
    "ucum": {
      "name": "/s",
      "termUid": "DictionaryTerm_000873"
    },
    "uid": "UnitDefinition_000148",
    "unitDimension": {
      "name": "Count per time",
      "termUid": "CTTerm_000239"
    },
    "unitSubsets": [],
    "usConventionalUnit": true,
    "userInitials": "MT",
    "version": "1.0"
  },
  {
    "changeDescription": "Approved version",
    "comment": "",
    "conversionFactorToMaster": 0.001,
    "convertibleUnit": true,
    "ctUnits": [
      {
        "name": "mU/L",
        "termUid": "C67408_mU/L"
      }
    ],
    "definition": "CDISC code: C67408_x000D_\nCDISC submission value: mU/L_x000D_\nCDISC synonym: _x000D_\nCDISC Description: An arbitrary unit of substance concentration equal to the concentration at which one liter of mixture contains one thousandth of a unit of a substance._x000D_\nNCI preferred term: Microunit per Milliliter_x000D_\n_x000D_\n[strength subset]_x000D_\n",
    "displayUnit": true,
    "endDate": null,
    "legacyCode": "mU/L",
    "libraryName": "Sponsor",
    "masterUnit": false,
    "molecularWeightConvExpon": 0,
    "name": "mU/L",
    "order": 2000,
    "siUnit": false,
    "startDate": "2022-10-18T12:55:38.406612",
    "status": "Final",
    "templateParameter": true,
    "ucum": {
      "name": "uU/mL",
      "termUid": "DictionaryTerm_000469"
    },
    "uid": "UnitDefinition_000149",
    "unitDimension": {
      "name": "U/IU Concentration",
      "termUid": "CTTerm_000210"
    },
    "unitSubsets": [
      {
        "name": "Strength Unit",
        "termUid": "CTTerm_000087"
      }
    ],
    "usConventionalUnit": true,
    "userInitials": "MT",
    "version": "1.0"
  },
  {
    "changeDescription": "Approved version",
    "comment": "",
    "conversionFactorToMaster": 0.0,
    "convertibleUnit": false,
    "ctUnits": [
      {
        "name": "copies/mL",
        "termUid": "C100900_copies/mL"
      }
    ],
    "definition": "CDISC code: C100900_x000D_\nCDISC submission value: copies/mL_x000D_\nCDISC synonym(s): _x000D_\nCDISC definition: A unit of concentration expressed as a number of copies per unit volume equal to one milliliter._x000D_\nNCI preferred term: Copies per Milliliter_x000D_\n",
    "displayUnit": true,
    "endDate": null,
    "legacyCode": "copies/mL",
    "libraryName": "Sponsor",
    "masterUnit": false,
    "molecularWeightConvExpon": 0,
    "name": "copies/mL",
    "order": 37,
    "siUnit": false,
    "startDate": "2022-10-18T12:55:38.589432",
    "status": "Final",
    "templateParameter": true,
    "ucum": {
      "name": "{copies}/mL",
      "termUid": "DictionaryTerm_000217"
    },
    "uid": "UnitDefinition_000150",
    "unitDimension": {
      "name": "Concentration",
      "termUid": "CTTerm_000244"
    },
    "unitSubsets": [],
    "usConventionalUnit": false,
    "userInitials": "MT",
    "version": "1.0"
  },
  {
    "changeDescription": "Approved version",
    "comment": "",
    "conversionFactorToMaster": 1.0,
    "convertibleUnit": true,
    "ctUnits": [
      {
        "name": "L",
        "termUid": "C48505_L"
      }
    ],
    "definition": "<CodeLists>_x000D_\n<CodeList Value=\"UNIT\"></CodeList>_x000D_\n<CodeList Value=\"PKUNIT\"></CodeList>_x000D_\n</CodeLists>_x000D_\nCDISC code: C48505_x000D_\nCDISC submission value: L_x000D_\nCDISC synonym: Liter_x000D_\nCDISC Description: A unit of volume equal to a cubic decimeter, or one thousandth of cubic meter, or 1000 cubic centimeters, or approximately 61.023 744 cubic inches.(NCI)_x000D_\nNCI preferred term: Liter_x000D_\n",
    "displayUnit": true,
    "endDate": null,
    "legacyCode": "L",
    "libraryName": "Sponsor",
    "masterUnit": true,
    "molecularWeightConvExpon": 0,
    "name": "L",
    "order": 2130,
    "siUnit": true,
    "startDate": "2022-10-18T12:55:38.749262",
    "status": "Final",
    "templateParameter": true,
    "ucum": {
      "name": "L",
      "termUid": "DictionaryTerm_000440"
    },
    "uid": "UnitDefinition_000151",
    "unitDimension": {
      "name": "Volume",
      "termUid": "C25335_VOLUME"
    },
    "unitSubsets": [],
    "usConventionalUnit": true,
    "userInitials": "MT",
    "version": "1.0"
  },
  {
    "changeDescription": "Approved version",
    "comment": "",
    "conversionFactorToMaster": 1.0,
    "convertibleUnit": true,
    "ctUnits": [
      {
        "name": "/h",
        "termUid": "C66966_/h"
      }
    ],
    "definition": "CDISC code: C66966_x000D_\nCDISC submission value: /h_x000D_\nCDISC synonym(s): Per Hour_x000D_\nCDISC definition: A rate of occurrences of something within a period of time equal to sixty minutes._x000D_\nNCI preferred term: /h",
    "displayUnit": true,
    "endDate": null,
    "legacyCode": "/h",
    "libraryName": "Sponsor",
    "masterUnit": false,
    "molecularWeightConvExpon": 0,
    "name": "/h",
    "order": 39,
    "siUnit": true,
    "startDate": "2022-10-18T12:55:38.962390",
    "status": "Final",
    "templateParameter": true,
    "ucum": {
      "name": "/h",
      "termUid": "DictionaryTerm_000858"
    },
    "uid": "UnitDefinition_000152",
    "unitDimension": {
      "name": "Count per time",
      "termUid": "CTTerm_000239"
    },
    "unitSubsets": [],
    "usConventionalUnit": true,
    "userInitials": "MT",
    "version": "1.0"
  },
  {
    "changeDescription": "Approved version",
    "comment": "",
    "conversionFactorToMaster": 1.0,
    "convertibleUnit": false,
    "ctUnits": [
      {
        "name": "IU/mL",
        "termUid": "C67377_IU/mL"
      }
    ],
    "definition": "Dose Units/mililiter_x000D_\n",
    "displayUnit": true,
    "endDate": null,
    "legacyCode": "DU/mL",
    "libraryName": "Sponsor",
    "masterUnit": false,
    "molecularWeightConvExpon": 0,
    "name": "DU/mL",
    "order": 2000,
    "siUnit": false,
    "startDate": "2022-10-18T12:55:39.264790",
    "status": "Final",
    "templateParameter": true,
    "ucum": {
      "name": "[IU]/mL",
      "termUid": "DictionaryTerm_000400"
    },
    "uid": "UnitDefinition_000153",
    "unitDimension": {
      "name": "U/IU Concentration",
      "termUid": "CTTerm_000210"
    },
    "unitSubsets": [],
    "usConventionalUnit": false,
    "userInitials": "MT",
    "version": "1.0"
  },
  {
    "changeDescription": "Approved version",
    "comment": "",
    "conversionFactorToMaster": 1.0,
    "convertibleUnit": false,
    "ctUnits": [
      {
        "name": "PACK",
        "termUid": "C62653_PACK"
      }
    ],
    "definition": "A number of individual items packaged as a unit._x000D_\n_x000D_\n[dose subset]",
    "displayUnit": true,
    "endDate": null,
    "legacyCode": "PACK",
    "libraryName": "Sponsor",
    "masterUnit": false,
    "molecularWeightConvExpon": 0,
    "name": "PACK",
    "order": 1,
    "siUnit": false,
    "startDate": "2022-10-18T12:55:39.738888",
    "status": "Final",
    "templateParameter": true,
    "ucum": {
      "name": "{Pack}",
      "termUid": "DictionaryTerm_001017"
    },
    "uid": "UnitDefinition_000154",
    "unitDimension": null,
    "unitSubsets": [
      {
        "name": "Dose Unit",
        "termUid": "CTTerm_000088"
      }
    ],
    "usConventionalUnit": false,
    "userInitials": "MT",
    "version": "1.0"
  },
  {
    "changeDescription": "Approved version",
    "comment": "",
    "conversionFactorToMaster": 1e-05,
    "convertibleUnit": true,
    "ctUnits": [
      {
        "name": "ug/dL",
        "termUid": "C67305_ug/dL"
      }
    ],
    "definition": "CDISC code: C67305_x000D_\nCDISC submission value: ug/dL_x000D_\nCDISC synonym: Microgram per Deciliter_x000D_\nCDISC Description: A unit of mass concentration defined as the concentration of one microgram of a substance per unit volume of the mixture equal to one deciliter. The concept also refers to the unit of mass density (volumic mass) defined as the density of substance which mass equal to one microgram occupies the volume one deciliter. (NCI)_x000D_\nNCI preferred term: ug/dL",
    "displayUnit": true,
    "endDate": null,
    "legacyCode": "ug/dL",
    "libraryName": "Sponsor",
    "masterUnit": false,
    "molecularWeightConvExpon": 0,
    "name": "ug/dL",
    "order": 35,
    "siUnit": true,
    "startDate": "2022-10-18T12:55:39.922965",
    "status": "Final",
    "templateParameter": true,
    "ucum": {
      "name": "ug/dL",
      "termUid": "DictionaryTerm_000483"
    },
    "uid": "UnitDefinition_000155",
    "unitDimension": {
      "name": "Concentration",
      "termUid": "CTTerm_000244"
    },
    "unitSubsets": [],
    "usConventionalUnit": true,
    "userInitials": "MT",
    "version": "1.0"
  },
  {
    "changeDescription": "Approved version",
    "comment": "",
    "conversionFactorToMaster": 0.001,
    "convertibleUnit": true,
    "ctUnits": [
      {
        "name": "mmol/L",
        "termUid": "C64387_mmol/L"
      }
    ],
    "definition": "CDISC Value found_x000D_\nCDISC Code: C64387_x000D_\nCDISC Submission Value: mmol/L_x000D_\nCDISC Synonym(s): umol/mL_x000D_\nCDISC Definition: A unit of concentration (molarity unit) equal to one millimole of solute per liter of solution._x000D_\nNCI Preferred Term: Millimole per Liter _x000D_\nSponser defined. _x000D_\nmicromol / milliliter",
    "displayUnit": true,
    "endDate": null,
    "legacyCode": "umol/mL",
    "libraryName": "Sponsor",
    "masterUnit": false,
    "molecularWeightConvExpon": 1,
    "name": "umol/mL",
    "order": 35,
    "siUnit": true,
    "startDate": "2022-10-18T12:55:40.139453",
    "status": "Final",
    "templateParameter": true,
    "ucum": {
      "name": "mmol/L",
      "termUid": "DictionaryTerm_000687"
    },
    "uid": "UnitDefinition_000156",
    "unitDimension": {
      "name": "Concentration",
      "termUid": "CTTerm_000244"
    },
    "unitSubsets": [],
    "usConventionalUnit": true,
    "userInitials": "MT",
    "version": "1.0"
  },
  {
    "changeDescription": "Approved version",
    "comment": "",
    "conversionFactorToMaster": 1.0,
    "convertibleUnit": false,
    "ctUnits": [
      {
        "name": "GPL U/mL",
        "termUid": "C117971_GPL U/mL"
      }
    ],
    "definition": "A unit for semiquantitative measurement of IgG autoantibodies to proteins associated with negatively charged phospholipids evaluated against an established reference standard, per unit of volume equal to one milliliter.",
    "displayUnit": true,
    "endDate": null,
    "legacyCode": "GPL U/mL",
    "libraryName": "Sponsor",
    "masterUnit": false,
    "molecularWeightConvExpon": 0,
    "name": "GPL U/mL",
    "order": 1,
    "siUnit": false,
    "startDate": "2022-10-18T12:55:40.276390",
    "status": "Final",
    "templateParameter": true,
    "ucum": {
      "name": "[GPL'U]/mL",
      "termUid": "DictionaryTerm_000368"
    },
    "uid": "UnitDefinition_000157",
    "unitDimension": {
      "name": "U/IU Concentration",
      "termUid": "CTTerm_000210"
    },
    "unitSubsets": [],
    "usConventionalUnit": false,
    "userInitials": "MT",
    "version": "1.0"
  },
  {
    "changeDescription": "Approved version",
    "comment": "",
    "conversionFactorToMaster": 1000.0,
    "convertibleUnit": true,
    "ctUnits": [
      {
        "name": "kg/L",
        "termUid": "C64566_kg/L"
      }
    ],
    "definition": "SDTM Terminology 2017-06-30_x000D_\nCode:C64566_x000D_\nCDISC Code Value:  _x000D_\nCDISC Value Label: kg/L       _x000D_\nCDISC synonym(s): Gram per Milliliter; Kilogram per Liter; g/mL; gram/mL; kg/L; mg/uL_x000D_\nCDISC definition: _x000D_\nA unit of concentration or mass density equal to one gram of substance per milliliter of solution or one kilogram of substance per l_x000D_\niter of solution._x000D_\nNCI preferred term: Kilogram per Liter_x000D_\n",
    "displayUnit": true,
    "endDate": null,
    "legacyCode": "kg/L",
    "libraryName": "Sponsor",
    "masterUnit": false,
    "molecularWeightConvExpon": 0,
    "name": "kg/L",
    "order": 35,
    "siUnit": true,
    "startDate": "2022-10-18T12:55:40.472545",
    "status": "Final",
    "templateParameter": true,
    "ucum": {
      "name": "kg/L",
      "termUid": "DictionaryTerm_000427"
    },
    "uid": "UnitDefinition_000158",
    "unitDimension": {
      "name": "Concentration",
      "termUid": "CTTerm_000244"
    },
    "unitSubsets": [],
    "usConventionalUnit": true,
    "userInitials": "MT",
    "version": "1.0"
  },
  {
    "changeDescription": "Approved version",
    "comment": "",
    "conversionFactorToMaster": 1e-12,
    "convertibleUnit": true,
    "ctUnits": [
      {
        "name": "nmol",
        "termUid": "C48517_nmol"
      }
    ],
    "definition": "CDISC code: C48517_x000D_\nCDISC submission value: nmol_x000D_\nCDISC synonym(s): Nanomole _x000D_\nCDISC definition: A unit of amount of substance equal to one billionth (10E-9) of a mole._x000D_\nNCI preferred term: Nanomole_x000D_\n_x000D_\n[dose subset]_x000D_\n[strength subset]_x000D_\n",
    "displayUnit": true,
    "endDate": null,
    "legacyCode": "nmol",
    "libraryName": "Sponsor",
    "masterUnit": false,
    "molecularWeightConvExpon": 1,
    "name": "nmol",
    "order": 2200,
    "siUnit": true,
    "startDate": "2022-10-18T12:55:40.766541",
    "status": "Final",
    "templateParameter": true,
    "ucum": {
      "name": "nmol",
      "termUid": "DictionaryTerm_000766"
    },
    "uid": "UnitDefinition_000159",
    "unitDimension": {
      "name": "Weight",
      "termUid": "C25208_WEIGHT"
    },
    "unitSubsets": [
      {
        "name": "Dose Unit",
        "termUid": "CTTerm_000088"
      },
      {
        "name": "Strength Unit",
        "termUid": "CTTerm_000087"
      }
    ],
    "usConventionalUnit": true,
    "userInitials": "MT",
    "version": "1.0"
  },
  {
    "changeDescription": "Approved version",
    "comment": "",
    "conversionFactorToMaster": 133.3222,
    "convertibleUnit": true,
    "ctUnits": [
      {
        "name": "mmHg",
        "termUid": "C49670_mmHg"
      }
    ],
    "definition": "<CodeLists>_x000D_\n<CodeList Value=\"UNIT\"></CodeList>_x000D_\n<CodeList Value=\"VSRESU\"></CodeList>_x000D_\n</CodeLists>",
    "displayUnit": true,
    "endDate": null,
    "legacyCode": "mmHg",
    "libraryName": "Sponsor",
    "masterUnit": false,
    "molecularWeightConvExpon": 0,
    "name": "mmHg",
    "order": 1550,
    "siUnit": true,
    "startDate": "2022-10-18T12:55:40.880391",
    "status": "Final",
    "templateParameter": true,
    "ucum": {
      "name": "mm[Hg]",
      "termUid": "DictionaryTerm_000663"
    },
    "uid": "UnitDefinition_000160",
    "unitDimension": {
      "name": "Pressure",
      "termUid": "CTTerm_000219"
    },
    "unitSubsets": [],
    "usConventionalUnit": true,
    "userInitials": "MT",
    "version": "1.0"
  },
  {
    "changeDescription": "Approved version",
    "comment": "",
    "conversionFactorToMaster": 1e-06,
    "convertibleUnit": true,
    "ctUnits": [
      {
        "name": "ugEq/L",
        "termUid": "C122230_ugEq/L"
      }
    ],
    "definition": "Nanogram equivalent per millilitre._x000D_\n_x000D_\nCDISC code: ugEq/L_x000D_\nCDISC synonym: ngEq/mL",
    "displayUnit": true,
    "endDate": null,
    "legacyCode": "ng Eq/mL",
    "libraryName": "Sponsor",
    "masterUnit": false,
    "molecularWeightConvExpon": 1,
    "name": "ng Eq/mL",
    "order": 35,
    "siUnit": false,
    "startDate": "2022-10-18T12:55:41.112361",
    "status": "Final",
    "templateParameter": true,
    "ucum": {
      "name": "ug.eq/l",
      "termUid": "DictionaryTerm_000135"
    },
    "uid": "UnitDefinition_000161",
    "unitDimension": {
      "name": "Concentration",
      "termUid": "CTTerm_000244"
    },
    "unitSubsets": [],
    "usConventionalUnit": true,
    "userInitials": "MT",
    "version": "1.0"
  },
  {
    "changeDescription": "Approved version",
    "comment": "",
    "conversionFactorToMaster": 1.0,
    "convertibleUnit": true,
    "ctUnits": [
      {
        "name": "mg/kg/min",
        "termUid": "C71207_mg/kg/min"
      }
    ],
    "definition": "CDISC code: C71207_x000D_\nCDISC submission value: mg/kg/min_x000D_\nCDISC synonym: Milligram per Kilogram per Minute_x000D_\nCDISC Description: A dose calculation unit equal to one thousandth of a gram of a preparation per one kilogram of body mass administered per unit of time equal to one minute.(NCI)_x000D_\nNCI preferred term: Milligram per Kilogram per Minute",
    "displayUnit": true,
    "endDate": null,
    "legacyCode": "mg/(kg*min)",
    "libraryName": "Sponsor",
    "masterUnit": true,
    "molecularWeightConvExpon": 0,
    "name": "mg/(kg*min)",
    "order": 1735,
    "siUnit": true,
    "startDate": "2022-10-18T12:55:41.257380",
    "status": "Final",
    "templateParameter": true,
    "ucum": {
      "name": "mg/kg/min",
      "termUid": "DictionaryTerm_000617"
    },
    "uid": "UnitDefinition_000162",
    "unitDimension": {
      "name": "Relative Mass Flow Rate",
      "termUid": "CTTerm_000215"
    },
    "unitSubsets": [],
    "usConventionalUnit": true,
    "userInitials": "MT",
    "version": "1.0"
  },
  {
    "changeDescription": "Approved version",
    "comment": "",
    "conversionFactorToMaster": 1.0,
    "convertibleUnit": false,
    "ctUnits": [
      {
        "name": "IU",
        "termUid": "C48579_IU"
      }
    ],
    "definition": "CDISC code: C48579_x000D_\nCDISC submission value: IU_x000D_\nCDISC synonym: IE; International Unit_x000D_\nCDISC Description: The unitage assigned by the WHO (World Health Organization) to International Biological Standards - substances, classed as biological according to the criteria provided by WHO Expert Committee on Biological Standardization, to enable the results of biological and immunological assay procedures to be expressed in the same way throughout the world. The definition of an international unit is generally arbitrary and technical, and has to be officially approved by the International Conference for Unification of Formulae.(NCI)_x000D_\nNCI preferred term: International Unit_x000D_\n",
    "displayUnit": true,
    "endDate": null,
    "legacyCode": "IU",
    "libraryName": "Sponsor",
    "masterUnit": false,
    "molecularWeightConvExpon": 0,
    "name": "IU",
    "order": 2000,
    "siUnit": false,
    "startDate": "2022-10-18T12:55:41.460170",
    "status": "Final",
    "templateParameter": true,
    "ucum": {
      "name": "[IU]",
      "termUid": "DictionaryTerm_000386"
    },
    "uid": "UnitDefinition_000163",
    "unitDimension": {
      "name": "U/IU Concentration",
      "termUid": "CTTerm_000210"
    },
    "unitSubsets": [],
    "usConventionalUnit": false,
    "userInitials": "MT",
    "version": "1.0"
  },
  {
    "changeDescription": "Approved version",
    "comment": "",
    "conversionFactorToMaster": 1e-18,
    "convertibleUnit": true,
    "ctUnits": [
      {
        "name": "fmol",
        "termUid": "C68854_fmol"
      }
    ],
    "definition": "CDISC code: C68854_x000D_\nCDISC submission value: fmol_x000D_\nCDISC synonym: Femtomole_x000D_\nCDISC Description: A unit of amount of substance equal to one quadrillionth of a mole (10E-15 mole).(NCI)_x000D_\nNCI preferred term: Femtomole_x000D_\n_x000D_\n[strength subset]_x000D_\n",
    "displayUnit": true,
    "endDate": null,
    "legacyCode": "fmol",
    "libraryName": "Sponsor",
    "masterUnit": false,
    "molecularWeightConvExpon": 1,
    "name": "fmol",
    "order": 2200,
    "siUnit": true,
    "startDate": "2022-10-18T12:55:41.645150",
    "status": "Final",
    "templateParameter": true,
    "ucum": {
      "name": "fmol",
      "termUid": "DictionaryTerm_000297"
    },
    "uid": "UnitDefinition_000164",
    "unitDimension": {
      "name": "Weight",
      "termUid": "C25208_WEIGHT"
    },
    "unitSubsets": [
      {
        "name": "Strength Unit",
        "termUid": "CTTerm_000087"
      }
    ],
    "usConventionalUnit": true,
    "userInitials": "MT",
    "version": "1.0"
  },
  {
    "changeDescription": "Approved version",
    "comment": "",
    "conversionFactorToMaster": 1000.0,
    "convertibleUnit": true,
    "ctUnits": [
      {
        "name": "10^12/L",
        "termUid": "C67308_10^12/L"
      }
    ],
    "definition": "Sponsor defined._x000D_\n10^9/mL",
    "displayUnit": true,
    "endDate": null,
    "legacyCode": "10^9/mL",
    "libraryName": "Sponsor",
    "masterUnit": false,
    "molecularWeightConvExpon": 0,
    "name": "10^9/mL",
    "order": 30,
    "siUnit": true,
    "startDate": "2022-10-18T12:55:41.839713",
    "status": "Final",
    "templateParameter": true,
    "ucum": {
      "name": "10*12/L",
      "termUid": "DictionaryTerm_001002"
    },
    "uid": "UnitDefinition_000165",
    "unitDimension": {
      "name": "Specified Cell Count Test",
      "termUid": "C174332_CELL COUNT"
    },
    "unitSubsets": [],
    "usConventionalUnit": true,
    "userInitials": "MT",
    "version": "1.0"
  },
  {
    "changeDescription": "Approved version",
    "comment": "",
    "conversionFactorToMaster": 1.0,
    "convertibleUnit": false,
    "ctUnits": [
      {
        "name": "MONTHS",
        "termUid": "C29846_MONTHS"
      }
    ],
    "definition": "One of the 12 divisions of a year as determined by a calendar. It corresponds to the unit of time of approximately to one cycle of the moon's phases, about 30 days or 4 weeks. (NCI)_x000D_\n",
    "displayUnit": true,
    "endDate": null,
    "legacyCode": "MONTHS",
    "libraryName": "Sponsor",
    "masterUnit": false,
    "molecularWeightConvExpon": 0,
    "name": "MONTHS",
    "order": 1,
    "siUnit": false,
    "startDate": "2022-10-18T12:55:42.043558",
    "status": "Final",
    "templateParameter": true,
    "ucum": {
      "name": "mo",
      "termUid": "DictionaryTerm_000729"
    },
    "uid": "UnitDefinition_000166",
    "unitDimension": {
      "name": "Duration",
      "termUid": "C25330_TIME"
    },
    "unitSubsets": [],
    "usConventionalUnit": false,
    "userInitials": "MT",
    "version": "1.0"
  },
  {
    "changeDescription": "Approved version",
    "comment": "",
    "conversionFactorToMaster": 1.0,
    "convertibleUnit": false,
    "ctUnits": [
      {
        "name": "ppm",
        "termUid": "C48523_ppm"
      }
    ],
    "definition": "CDISC code: C48523_x000D_\nCDISC submission value: ppm_x000D_\nCDISC synonym: Part per Million_x000D_\nCDISC Description: A unit of measurement referring to one entity counted per one million entities.(NCI)_x000D_\nNCI preferred term: Part Per Million",
    "displayUnit": true,
    "endDate": null,
    "legacyCode": "ppm",
    "libraryName": "Sponsor",
    "masterUnit": false,
    "molecularWeightConvExpon": 0,
    "name": "ppm",
    "order": 114,
    "siUnit": true,
    "startDate": "2022-10-18T12:55:42.340853",
    "status": "Final",
    "templateParameter": true,
    "ucum": {
      "name": "[ppm]",
      "termUid": "DictionaryTerm_000831"
    },
    "uid": "UnitDefinition_000167",
    "unitDimension": {
      "name": "Mass Fraction",
      "termUid": "C67470_MASS FRACTION"
    },
    "unitSubsets": [],
    "usConventionalUnit": false,
    "userInitials": "MT",
    "version": "1.0"
  },
  {
    "changeDescription": "Approved version",
    "comment": "",
    "conversionFactorToMaster": 1.0,
    "convertibleUnit": true,
    "ctUnits": [
      {
        "name": "deg",
        "termUid": "C68667_deg"
      }
    ],
    "definition": "CDISC Submission value: deg_x000D_\nCDISC Synonym: Degree Unit of Plane Angle_x000D_\nCDISC code:C68667_x000D_\nCDISC definition: A unit of plane angle measurement equal to the length of the arc cut out by the angle, divided by the circumference of the circle, and multiplied by 360. The symbol for degrees is a small superscript circle. One radian is about 57 degrees and one degree is pi/180 radians.(NCI",
    "displayUnit": true,
    "endDate": null,
    "legacyCode": "deg",
    "libraryName": "Sponsor",
    "masterUnit": true,
    "molecularWeightConvExpon": 0,
    "name": "deg",
    "order": 40,
    "siUnit": true,
    "startDate": "2022-10-18T12:55:42.466898",
    "status": "Final",
    "templateParameter": true,
    "ucum": {
      "name": "deg",
      "termUid": "DictionaryTerm_000232"
    },
    "uid": "UnitDefinition_000168",
    "unitDimension": {
      "name": "Degrees",
      "termUid": "CTTerm_000237"
    },
    "unitSubsets": [],
    "usConventionalUnit": true,
    "userInitials": "MT",
    "version": "1.0"
  },
  {
    "changeDescription": "Approved version",
    "comment": "",
    "conversionFactorToMaster": 1.0,
    "convertibleUnit": false,
    "ctUnits": [
      {
        "name": "umol/kg/min",
        "termUid": "C126082_umol/kg/min"
      }
    ],
    "definition": "CDISC not found: _x000D_\nSponser defined. _x000D_\nMicromole per kilogram fat free mass (FFM) per minute_x000D_\n_x000D_\n",
    "displayUnit": true,
    "endDate": null,
    "legacyCode": "umol/kgFFM/min",
    "libraryName": "Sponsor",
    "masterUnit": false,
    "molecularWeightConvExpon": 0,
    "name": "umol/kgFFM/min",
    "order": 40,
    "siUnit": true,
    "startDate": "2022-10-18T12:55:42.685223",
    "status": "Final",
    "templateParameter": true,
    "ucum": {
      "name": "umol/kg/min",
      "termUid": "DictionaryTerm_000141"
    },
    "uid": "UnitDefinition_000169",
    "unitDimension": {
      "name": "Dose Rate",
      "termUid": "CTTerm_000235"
    },
    "unitSubsets": [],
    "usConventionalUnit": false,
    "userInitials": "MT",
    "version": "1.0"
  },
  {
    "changeDescription": "Approved version",
    "comment": "",
    "conversionFactorToMaster": 1000000.0,
    "convertibleUnit": true,
    "ctUnits": [
      {
        "name": "MBq",
        "termUid": "C70512_MBq"
      }
    ],
    "definition": "CDISC code: C70512_x000D_\nCDISC submission value: MBq_x000D_\nCDISC synonym(s):  Megabecquerel_x000D_\nCDISC definition: A unit of radioactivity equal to one million nuclear disintegrations or other nuclear transformations per second, or to 10E6 Becquerels.(NCI)_x000D_\nNCI preferred term: Megabecquerel_x000D_\n",
    "displayUnit": true,
    "endDate": null,
    "legacyCode": "MBq",
    "libraryName": "Sponsor",
    "masterUnit": false,
    "molecularWeightConvExpon": 0,
    "name": "MBq",
    "order": 1720,
    "siUnit": true,
    "startDate": "2022-10-18T12:55:43.006306",
    "status": "Final",
    "templateParameter": true,
    "ucum": {
      "name": "MBq",
      "termUid": "DictionaryTerm_000152"
    },
    "uid": "UnitDefinition_000170",
    "unitDimension": {
      "name": "Radioactivity",
      "termUid": "CTTerm_000220"
    },
    "unitSubsets": [],
    "usConventionalUnit": true,
    "userInitials": "MT",
    "version": "1.0"
  },
  {
    "changeDescription": "Approved version",
    "comment": "",
    "conversionFactorToMaster": 1.0,
    "convertibleUnit": false,
    "ctUnits": [
      {
        "name": "BU/mL",
        "termUid": "C117967_BU/mL"
      }
    ],
    "definition": "CDISC code: C117967_x000D_\nCDISC submission value: BU/mL_x000D_\nCDISC synonym(s): Bethesda unit per Milliliter_x000D_\nCDISC definition: A unit of measurement for blood coagulation inhibitor activity,expressed as a Bethesda Unit per unit of volume equal to one milliliter._x000D_\nNCI preferred term: Bethesda unit per Milliliter",
    "displayUnit": true,
    "endDate": null,
    "legacyCode": "BU/mL",
    "libraryName": "Sponsor",
    "masterUnit": false,
    "molecularWeightConvExpon": 0,
    "name": "BU/mL",
    "order": 90,
    "siUnit": false,
    "startDate": "2022-10-18T12:55:43.189390",
    "status": "Final",
    "templateParameter": true,
    "ucum": {
      "name": "[beth'U]/mL",
      "termUid": "DictionaryTerm_000146"
    },
    "uid": "UnitDefinition_000171",
    "unitDimension": {
      "name": "Inhibitor activity",
      "termUid": "CTTerm_000249"
    },
    "unitSubsets": [],
    "usConventionalUnit": false,
    "userInitials": "MT",
    "version": "1.0"
  },
  {
    "changeDescription": "Approved version",
    "comment": "",
    "conversionFactorToMaster": 1.0,
    "convertibleUnit": true,
    "ctUnits": [
      {
        "name": "IU/L",
        "termUid": "C67376_IU/L"
      }
    ],
    "definition": "CDISC code: C67376_x000D_\nCDISC submission value: IU/L_x000D_\nCDISC synonym: International Unit per Liter; IU/L; mIU/mL_x000D_\nCDISC Description: Unit of arbitrary substance concentration (biologic activity concentration) defined as the concentration of one international unit per one liter of system volume.(NCI)_x000D_\nNCI preferred term: International Unit per Liter_x000D_\n_x000D_\n[strength subset]_x000D_\n",
    "displayUnit": true,
    "endDate": null,
    "legacyCode": "IU/L",
    "libraryName": "Sponsor",
    "masterUnit": false,
    "molecularWeightConvExpon": 0,
    "name": "IU/L",
    "order": 2000,
    "siUnit": false,
    "startDate": "2022-10-18T12:55:43.472570",
    "status": "Final",
    "templateParameter": true,
    "ucum": {
      "name": "m[IU]/mL",
      "termUid": "DictionaryTerm_000563"
    },
    "uid": "UnitDefinition_000172",
    "unitDimension": {
      "name": "U/IU Concentration",
      "termUid": "CTTerm_000210"
    },
    "unitSubsets": [
      {
        "name": "Strength Unit",
        "termUid": "CTTerm_000087"
      }
    ],
    "usConventionalUnit": true,
    "userInitials": "MT",
    "version": "1.0"
  },
  {
    "changeDescription": "Approved version",
    "comment": "",
    "conversionFactorToMaster": 1e-06,
    "convertibleUnit": false,
    "ctUnits": [
      {
        "name": "ugEq/L",
        "termUid": "C122230_ugEq/L"
      }
    ],
    "definition": "A concentration unit measured as the number of microgram equivalents of solute per liter of solution, or as the number of nanogram equivalents of solute per milliliter of solution.",
    "displayUnit": true,
    "endDate": null,
    "legacyCode": "ugEq/L",
    "libraryName": "Sponsor",
    "masterUnit": false,
    "molecularWeightConvExpon": 1,
    "name": "ugEq/L",
    "order": 1,
    "siUnit": false,
    "startDate": "2022-10-18T12:55:43.673237",
    "status": "Final",
    "templateParameter": true,
    "ucum": {
      "name": "ug.eq/l",
      "termUid": "DictionaryTerm_000135"
    },
    "uid": "UnitDefinition_000173",
    "unitDimension": {
      "name": "Concentration",
      "termUid": "CTTerm_000244"
    },
    "unitSubsets": [],
    "usConventionalUnit": false,
    "userInitials": "MT",
    "version": "1.0"
  },
  {
    "changeDescription": "Approved version",
    "comment": "",
    "conversionFactorToMaster": 1.0,
    "convertibleUnit": false,
    "ctUnits": [
      {
        "name": "CAN",
        "termUid": "C48479_CAN"
      }
    ],
    "definition": "A dosing measurement based on the can unit.(NCI)_x000D_\n_x000D_\n[dose subset]",
    "displayUnit": true,
    "endDate": null,
    "legacyCode": "CAN",
    "libraryName": "Sponsor",
    "masterUnit": false,
    "molecularWeightConvExpon": 0,
    "name": "CAN",
    "order": 1,
    "siUnit": false,
    "startDate": "2022-10-18T12:55:43.843311",
    "status": "Final",
    "templateParameter": true,
    "ucum": {
      "name": "{CAN}",
      "termUid": "DictionaryTerm_001018"
    },
    "uid": "UnitDefinition_000174",
    "unitDimension": null,
    "unitSubsets": [
      {
        "name": "Dose Unit",
        "termUid": "CTTerm_000088"
      }
    ],
    "usConventionalUnit": false,
    "userInitials": "MT",
    "version": "1.0"
  },
  {
    "changeDescription": "Approved version",
    "comment": "",
    "conversionFactorToMaster": 1e-09,
    "convertibleUnit": true,
    "ctUnits": [
      {
        "name": "nmol/L",
        "termUid": "C67432_nmol/L"
      }
    ],
    "definition": "CDISC code: C67432_x000D_\nCDISC submission value: nmol/L_x000D_\nCDISC synonym: Nanomole per Liter_x000D_\nCDISC Description: A unit of concentration (molarity unit) equal to one billionth of a mole (10E-9 mole) of solute in one liter of solution.(NCI)_x000D_\nNCI preferred term: Nanomole per Liter_x000D_\n_x000D_\n[strength subset]_x000D_\n",
    "displayUnit": true,
    "endDate": null,
    "legacyCode": "nmol/L",
    "libraryName": "Sponsor",
    "masterUnit": false,
    "molecularWeightConvExpon": 1,
    "name": "nmol/L",
    "order": 35,
    "siUnit": true,
    "startDate": "2022-10-18T12:55:44.029225",
    "status": "Final",
    "templateParameter": true,
    "ucum": {
      "name": "nmol/L",
      "termUid": "DictionaryTerm_000782"
    },
    "uid": "UnitDefinition_000175",
    "unitDimension": {
      "name": "Concentration",
      "termUid": "CTTerm_000244"
    },
    "unitSubsets": [
      {
        "name": "Strength Unit",
        "termUid": "CTTerm_000087"
      }
    ],
    "usConventionalUnit": true,
    "userInitials": "MT",
    "version": "1.0"
  },
  {
    "changeDescription": "Approved version",
    "comment": "",
    "conversionFactorToMaster": 1.0,
    "convertibleUnit": false,
    "ctUnits": [
      {
        "name": "MET*min",
        "termUid": "C127807_MET*min"
      }
    ],
    "definition": "A unit of energy expenditure equal to the number of metabolic equivalent of task units times the number of minutes of performed activity.",
    "displayUnit": true,
    "endDate": null,
    "legacyCode": "MET*min",
    "libraryName": "Sponsor",
    "masterUnit": false,
    "molecularWeightConvExpon": 0,
    "name": "MET*min",
    "order": 1,
    "siUnit": false,
    "startDate": "2022-10-18T12:55:44.202434",
    "status": "Final",
    "templateParameter": true,
    "ucum": {
      "name": "[MET].min",
      "termUid": "DictionaryTerm_000144"
    },
    "uid": "UnitDefinition_000176",
    "unitDimension": {
      "name": "Energy Expenditure",
      "termUid": "CTTerm_000230"
    },
    "unitSubsets": [],
    "usConventionalUnit": false,
    "userInitials": "MT",
    "version": "1.0"
  },
  {
    "changeDescription": "Approved version",
    "comment": "",
    "conversionFactorToMaster": 60000.0,
    "convertibleUnit": true,
    "ctUnits": [
      {
        "name": "L/min",
        "termUid": "C67388_L/min"
      }
    ],
    "definition": "<CodeLists>_x000D_\n<CodeList Value=\"UNIT\"></CodeList>_x000D_\n<CodeList Value=\"PKUNIT\"></CodeList>_x000D_\n</CodeLists>_x000D_\nCDISC code: C67388_x000D_\nCDISC submission value: L/min_x000D_\nCDISC synonym: Liters per Minute_x000D_\nCDISC Description: A unit of volumetric flow rate defined as the rate at which one liter of matter travels during the period of time equal to one minute.(NCI)_x000D_\nNCI preferred term: Liter per Minute_x000D_\n",
    "displayUnit": true,
    "endDate": null,
    "legacyCode": "L/min",
    "libraryName": "Sponsor",
    "masterUnit": false,
    "molecularWeightConvExpon": 0,
    "name": "L/min",
    "order": 60,
    "siUnit": true,
    "startDate": "2022-10-18T12:55:44.393766",
    "status": "Final",
    "templateParameter": true,
    "ucum": {
      "name": "L/min",
      "termUid": "DictionaryTerm_000447"
    },
    "uid": "UnitDefinition_000177",
    "unitDimension": {
      "name": "Flow",
      "termUid": "CTTerm_000229"
    },
    "unitSubsets": [],
    "usConventionalUnit": true,
    "userInitials": "MT",
    "version": "1.0"
  },
  {
    "changeDescription": "Approved version",
    "comment": "",
    "conversionFactorToMaster": 1.0,
    "convertibleUnit": true,
    "ctUnits": [
      {
        "name": "mL/min/1.73m2",
        "termUid": "C67412_mL/min/1.73m2"
      }
    ],
    "definition": "CDISC code: C67412_x000D_\nCDISC submission value: mL/min/1.73m2_x000D_\nCDISC synonym: _x000D_\nCDISC Description: A metric unit of volumetric flow rate defined as the rate at which one milliliter of matter travels during the period of time equal to one minute per 1.73 meters squared of body surface area._x000D_\nNCI preferred term: Milliliter per Minute per 1.73 m2 of Body Surface Area",
    "displayUnit": true,
    "endDate": null,
    "legacyCode": "mL/min/SSA",
    "libraryName": "Sponsor",
    "masterUnit": true,
    "molecularWeightConvExpon": 0,
    "name": "mL/min/SSA",
    "order": 2140,
    "siUnit": false,
    "startDate": "2022-10-18T12:55:44.607044",
    "status": "Final",
    "templateParameter": true,
    "ucum": {
      "name": "mL/min/(173/100).m2",
      "termUid": "DictionaryTerm_000159"
    },
    "uid": "UnitDefinition_000178",
    "unitDimension": {
      "name": "Volumetric flow rate",
      "termUid": "CTTerm_000208"
    },
    "unitSubsets": [],
    "usConventionalUnit": true,
    "userInitials": "MT",
    "version": "1.0"
  },
  {
    "changeDescription": "Approved version",
    "comment": "",
    "conversionFactorToMaster": 1e-06,
    "convertibleUnit": true,
    "ctUnits": [
      {
        "name": "uL",
        "termUid": "C48153_uL"
      }
    ],
    "definition": "Cubic millimeters. Synonym is uL.",
    "displayUnit": true,
    "endDate": null,
    "legacyCode": "mm3",
    "libraryName": "Sponsor",
    "masterUnit": false,
    "molecularWeightConvExpon": 0,
    "name": "mm3",
    "order": 1,
    "siUnit": true,
    "startDate": "2022-10-18T12:55:44.914078",
    "status": "Final",
    "templateParameter": true,
    "ucum": {
      "name": "uL",
      "termUid": "DictionaryTerm_000515"
    },
    "uid": "UnitDefinition_000179",
    "unitDimension": {
      "name": "Volume",
      "termUid": "C25335_VOLUME"
    },
    "unitSubsets": [],
    "usConventionalUnit": true,
    "userInitials": "MT",
    "version": "1.0"
  },
  {
    "changeDescription": "Approved version",
    "comment": "",
    "conversionFactorToMaster": 37000.0,
    "convertibleUnit": true,
    "ctUnits": [
      {
        "name": "mCi/L",
        "termUid": "C71174_mCi/L"
      }
    ],
    "definition": "CDISC code: Sponsor defined. uCi/mL, Microcurie per milliLiter_x000D_\nClosest CDISC term is C71173 (uCi/L) with definition:_x000D_\nA unit of volumetric radioactivity concentration defined as a concentration of a radionuclide with an activity equal to one millionth of a Curie per unit volume equal to one milliliter._x000D_\n_x000D_\nAccording to Wikipedia 1uCi = 37000 Bq",
    "displayUnit": true,
    "endDate": null,
    "legacyCode": "uCi/mL",
    "libraryName": "Sponsor",
    "masterUnit": false,
    "molecularWeightConvExpon": 0,
    "name": "uCi/mL",
    "order": 2150,
    "siUnit": true,
    "startDate": "2022-10-18T12:55:45.206200",
    "status": "Final",
    "templateParameter": true,
    "ucum": {
      "name": "mCi/l",
      "termUid": "DictionaryTerm_000160"
    },
    "uid": "UnitDefinition_000180",
    "unitDimension": {
      "name": "Volumetric radioactivity",
      "termUid": "CTTerm_000209"
    },
    "unitSubsets": [],
    "usConventionalUnit": true,
    "userInitials": "MT",
    "version": "1.0"
  },
  {
    "changeDescription": "Approved version",
    "comment": "",
    "conversionFactorToMaster": 0.00069444,
    "convertibleUnit": true,
    "ctUnits": [
      {
        "name": "mmol/day",
        "termUid": "C67420_mmol/day"
      }
    ],
    "definition": "A unit of substance flow rate equal to one millimole per day._x000D_\n_x000D_\n",
    "displayUnit": true,
    "endDate": null,
    "legacyCode": "mmol/24h",
    "libraryName": "Sponsor",
    "masterUnit": false,
    "molecularWeightConvExpon": 1,
    "name": "mmol/24h",
    "order": 1,
    "siUnit": true,
    "startDate": "2022-10-18T12:55:45.391306",
    "status": "Final",
    "templateParameter": true,
    "ucum": {
      "name": "mmol/d",
      "termUid": "DictionaryTerm_000674"
    },
    "uid": "UnitDefinition_000181",
    "unitDimension": {
      "name": "Mass Flow Rate",
      "termUid": "CTTerm_000226"
    },
    "unitSubsets": [],
    "usConventionalUnit": true,
    "userInitials": "MT",
    "version": "1.0"
  },
  {
    "changeDescription": "Approved version",
    "comment": "",
    "conversionFactorToMaster": 1.0,
    "convertibleUnit": true,
    "ctUnits": [
      {
        "name": "mL/m2",
        "termUid": "C73761_mL/m2"
      }
    ],
    "definition": "Milliliters (volume) divided by meters squared (surface area)",
    "displayUnit": true,
    "endDate": null,
    "legacyCode": "mL/m^2",
    "libraryName": "Sponsor",
    "masterUnit": true,
    "molecularWeightConvExpon": 0,
    "name": "mL/m^2",
    "order": 2250,
    "siUnit": true,
    "startDate": "2022-10-18T12:55:45.580132",
    "status": "Final",
    "templateParameter": true,
    "ucum": {
      "name": "mL/m2",
      "termUid": "DictionaryTerm_000661"
    },
    "uid": "UnitDefinition_000182",
    "unitDimension": {
      "name": "Volumen per Area",
      "termUid": "CTTerm_000207"
    },
    "unitSubsets": [],
    "usConventionalUnit": true,
    "userInitials": "MT",
    "version": "1.0"
  },
  {
    "changeDescription": "Approved version",
    "comment": "",
    "conversionFactorToMaster": 1.0,
    "convertibleUnit": false,
    "ctUnits": [
      {
        "name": "kg/mol",
        "termUid": "C122210_kg/mol"
      }
    ],
    "definition": "A unit of mass commonly used to express the molar mass of a substance in gram(s) per millimole.",
    "displayUnit": true,
    "endDate": null,
    "legacyCode": "g/mmol",
    "libraryName": "Sponsor",
    "masterUnit": false,
    "molecularWeightConvExpon": 1,
    "name": "g/mmol",
    "order": 1,
    "siUnit": true,
    "startDate": "2022-10-18T12:55:45.782142",
    "status": "Final",
    "templateParameter": true,
    "ucum": {
      "name": "kg/mol",
      "termUid": "DictionaryTerm_000429"
    },
    "uid": "UnitDefinition_000183",
    "unitDimension": {
      "name": "Concentration",
      "termUid": "CTTerm_000244"
    },
    "unitSubsets": [],
    "usConventionalUnit": false,
    "userInitials": "MT",
    "version": "1.0"
  },
  {
    "changeDescription": "Approved version",
    "comment": "",
    "conversionFactorToMaster": 0.0001,
    "convertibleUnit": true,
    "ctUnits": [
      {
        "name": "ug/L/h",
        "termUid": "C122229_ug/L/h"
      }
    ],
    "definition": "CDISC code: C67430_x000D_\nCDISC submission value: ng/mL/h_x000D_\nCDISC synonym(s): ng/h/mL; ng/mL/h; ug/L/h_x000D_\nCDISC definition: Nanograms per milliliter per hour._x000D_\nNCI preferred term: Nanogram per Milliliter per Hour\"_x000D_\n",
    "displayUnit": true,
    "endDate": null,
    "legacyCode": "ng/mL/h",
    "libraryName": "Sponsor",
    "masterUnit": false,
    "molecularWeightConvExpon": 0,
    "name": "ng/mL/h",
    "order": 36,
    "siUnit": true,
    "startDate": "2022-10-18T12:55:46.006587",
    "status": "Final",
    "templateParameter": true,
    "ucum": {
      "name": "ug/l/h",
      "termUid": "DictionaryTerm_000138"
    },
    "uid": "UnitDefinition_000184",
    "unitDimension": {
      "name": "Concentration per time",
      "termUid": "CTTerm_000243"
    },
    "unitSubsets": [],
    "usConventionalUnit": true,
    "userInitials": "MT",
    "version": "1.0"
  },
  {
    "changeDescription": "Approved version",
    "comment": "",
    "conversionFactorToMaster": 60000.0,
    "convertibleUnit": true,
    "ctUnits": [
      {
        "name": "mL/g/min",
        "termUid": "C73757_mL/g/min"
      }
    ],
    "definition": "Milliliters per gram per minute or liters per minute (flow rate), divided by kilograms (weight) or milliliters per minute (flow rate), divided by grams (weight).",
    "displayUnit": true,
    "endDate": null,
    "legacyCode": "mL/g/min",
    "libraryName": "Sponsor",
    "masterUnit": false,
    "molecularWeightConvExpon": 0,
    "name": "mL/g/min",
    "order": 1,
    "siUnit": true,
    "startDate": "2022-10-18T12:55:46.185617",
    "status": "Final",
    "templateParameter": true,
    "ucum": {
      "name": "ml/g/min",
      "termUid": "DictionaryTerm_000165"
    },
    "uid": "UnitDefinition_000185",
    "unitDimension": {
      "name": "Relative flow rate",
      "termUid": "CTTerm_000216"
    },
    "unitSubsets": [],
    "usConventionalUnit": true,
    "userInitials": "MT",
    "version": "1.0"
  },
  {
    "changeDescription": "Approved version",
    "comment": "",
    "conversionFactorToMaster": 1.0,
    "convertibleUnit": false,
    "ctUnits": [
      {
        "name": "/LPF",
        "termUid": "C96620_/LPF"
      }
    ],
    "definition": "CDISC code: C96620_x000D_\nCDISC submission value: /LPF_x000D_\nCDISC synonym(s): per Low Powered Field_x000D_\nCDISC definition: A unit of measure equal to the instances of an entity per visual field of a microscope set to its minimum magnification power._x000D_\nNCI preferred term: Per Low Powered Field",
    "displayUnit": true,
    "endDate": null,
    "legacyCode": "/LPF",
    "libraryName": "Sponsor",
    "masterUnit": false,
    "molecularWeightConvExpon": 0,
    "name": "/LPF",
    "order": 136,
    "siUnit": false,
    "startDate": "2022-10-18T12:55:46.398322",
    "status": "Final",
    "templateParameter": true,
    "ucum": {
      "name": "/[LPF]",
      "termUid": "DictionaryTerm_000863"
    },
    "uid": "UnitDefinition_000186",
    "unitDimension": {
      "name": "Microscope dependent counts",
      "termUid": "CTTerm_000225"
    },
    "unitSubsets": [],
    "usConventionalUnit": false,
    "userInitials": "MT",
    "version": "1.0"
  },
  {
    "changeDescription": "Approved version",
    "comment": "",
    "conversionFactorToMaster": 0.001,
    "convertibleUnit": true,
    "ctUnits": [
      {
        "name": "nmol/mol",
        "termUid": "C122220_nmol/mol"
      }
    ],
    "definition": "A unit of fraction expressed as the ratio of the amount of a substance in solution, in nanomoles, to the amount of a different substance in the mixture, in moles.",
    "displayUnit": true,
    "endDate": null,
    "legacyCode": "nmol/mol",
    "libraryName": "Sponsor",
    "masterUnit": false,
    "molecularWeightConvExpon": 0,
    "name": "nmol/mol",
    "order": 1,
    "siUnit": true,
    "startDate": "2022-10-18T12:55:46.648041",
    "status": "Final",
    "templateParameter": true,
    "ucum": {
      "name": "nmol/mol",
      "termUid": "DictionaryTerm_000801"
    },
    "uid": "UnitDefinition_000187",
    "unitDimension": {
      "name": "Mass Fraction",
      "termUid": "C67470_MASS FRACTION"
    },
    "unitSubsets": [],
    "usConventionalUnit": true,
    "userInitials": "MT",
    "version": "1.0"
  },
  {
    "changeDescription": "Approved version",
    "comment": "",
    "conversionFactorToMaster": 4.186,
    "convertibleUnit": true,
    "ctUnits": [
      {
        "name": "cal",
        "termUid": "C67193_cal"
      }
    ],
    "definition": "CDISC code: C67193_x000D_\nCDISC submission value: cal_x000D_\nCDISC synonym: Calorie_x000D_\nCDISC Description: A measurement of nutritional energy. The quantity of thermal energy required to raise one gram of water one degree Centigrade under standard conditions. 1 calorie equals 4.186 joules. (NCI)_x000D_\nNCI preferred term: calorie",
    "displayUnit": true,
    "endDate": null,
    "legacyCode": "cal",
    "libraryName": "Sponsor",
    "masterUnit": false,
